state, elapsed ms, dt, acc x, acc y, acc z, alt, pressure mbar, barometer temp, kalman alt, kalman vel, kalman acc, utc time, lat, long, hdop, msl alt, geoid sep, pos fix, sats used,extention
1,11348336,0.007,-29.017193,-0.623437,-0.363672,-0.029064,1009.5,40.52,5.544787,-27.304426,-23.953556,0,0,0,0,0,0,0,0,0
2,11348350,0.007,-61.958218,-0.412891,-0.555078,21.297098,1006.950012,40.5,14.061711,-6.0593,-51.697536,0,0,0,0,0,0,0,0,0
2,11348364,0.007,-116.394165,-1.59961,-0.689063,21.297098,1006.950012,40.5,18.0191,2.040594,-106.431656,0,0,0,0,0,0,0,0,0
2,11348378,0.007,-123.28479,-1.523047,0.191406,21.297098,1006.950012,40.5,19.53388,3.973295,-120.348633,0,0,0,0,0,0,0,0,0
2,11348392,0.007,-124.069557,-1.867578,-0.038281,14.350439,1007.780029,40.5,17.256779,-3.58167,-123.739525,0,0,0,0,0,0,0,0,0
2,11348406,0.007,-122.863701,-1.771875,-1.358985,18.282213,1007.309998,40.5,16.468246,-7.056147,-123.013435,0,0,0,0,0,0,0,0,0
2,11348420,0.007,-122.940262,-1.637891,-1.033594,18.282213,1007.309998,40.5,18.455206,-3.598997,-122.946732,0,0,0,0,0,0,0,0,0
2,11348434,0.007,-122.327759,-1.810157,0.076563,21.297098,1006.950012,40.5,19.481464,-2.587676,-122.510735,0,0,0,0,0,0,0,0,0
2,11348448,0.007,-121.370728,-0.987109,-0.535938,19.286291,1007.190002,40.5,15.434134,-14.087797,-121.672005,0,0,0,0,0,0,0,0,0
2,11348462,0.007,-119.935181,-2.958594,-0.669922,33.359283,1005.51001,40.5,18.890589,-6.424583,-120.269188,0,0,0,0,0,0,0,0,0
2,11348476,0.007,-119.169556,-3.896485,-0.631641,9.332674,1008.380005,40.5,15.514081,-16.299814,-119.42733,0,0,0,0,0,0,0,0,0
2,11348490,0.007,-118.901588,-3.13086,-0.880469,3.979334,1009.02002,40.52,10.666678,-29.470652,-118.948349,0,0,0,0,0,0,0,0,0
2,11348504,0.007,-119.169556,-2.250391,-0.535938,2.309389,1009.219971,40.5,11.673183,-27.785412,-119.033936,0,0,0,0,0,0,0,0,0
2,11348518,0.007,-119.609795,-2.882032,-0.421094,27.326872,1006.22998,40.5,18.612011,-11.167056,-119.558533,0,0,0,0,0,0,0,0,0
2,11348532,0.007,-119.514091,-3.092579,-0.59336,19.286291,1007.190002,40.5,16.046078,-18.697012,-119.473991,0,0,0,0,0,0,0,0,0
2,11348546,0.007,-119.85862,-2.326953,-0.30625,14.934393,1007.710022,40.52,17.779055,-15.475199,-119.752457,0,0,0,0,0,0,0,0,0
2,11348560,0.007,-120.547684,-2.020703,-0.325391,12.342276,1008.02002,40.5,12.370423,-29.960442,-120.397133,0,0,0,0,0,0,0,0,0
2,11348574,0.007,-120.37542,-3.073438,-0.287109,5.318991,1008.859985,40.5,8.395339,-40.459686,-120.413445,0,0,0,0,0,0,0,0,0
2,11348588,0.007,-120.260574,-2.058985,-1.20586,19.286291,1007.190002,40.5,15.780476,-22.405752,-120.274017,0,0,0,0,0,0,0,0,0
2,11348602,0.007,-120.394554,-2.269531,0.708203,19.286291,1007.190002,40.5,19.41209,-14.31873,-120.315773,0,0,0,0,0,0,0,0,0
2,11348616,0.007,-120.58596,-0.164062,0,15.354521,1007.659973,40.5,17.782795,-19.556311,-120.562035,0,0,0,0,0,0,0,0,0
2,11348630,0.007,-120.643387,-0.39375,-0.153125,19.957441,1007.109985,40.52,18.837803,-17.911718,-120.604118,0,0,0,0,0,0,0,0,0
2,11348644,0.007,-120.930496,-0.566016,-0.267969,22.30118,1006.830017,40.5,19.000679,-18.489506,-120.841461,0,0,0,0,0,0,0,0,0
2,11348658,0.007,-122.155495,-1.484766,0.248828,24.980494,1006.51001,40.52,20.541441,-15.645434,-121.946785,0,0,0,0,0,0,0,0,0
2,11348672,0.007,-122.576591,-1.695313,-0.267969,15.938475,1007.590027,40.52,18.70458,-21.383062,-122.432701,0,0,0,0,0,0,0,0,0
2,11348683,0.011,-123.055107,-1.61875,-0.287109,17.278131,1007.429993,40.5,18.09433,-23.66198,-122.869743,0,0,0,0,0,0,0,0,0
2,11348696,0.007,-123.28479,-1.465625,-0.191406,24.311987,1006.590027,40.5,23.379536,-11.411389,-123.247902,0,0,0,0,0,0,0,0,0
2,11348710,0.007,-123.571899,-1.580469,-0.229688,23.305262,1006.710022,40.5,21.927061,-16.278566,-123.511131,0,0,0,0,0,0,0,0,0
2,11348724,0.007,-123.80159,-1.637891,-0.191406,13.346357,1007.900024,40.5,18.986843,-24.793282,-123.775909,0,0,0,0,0,0,0,0,0
2,11348738,0.007,-124.624634,-1.542188,-0.267969,16.358603,1007.539978,40.5,16.951778,-30.692881,-124.493324,0,0,0,0,0,0,0,0,0
2,11348752,0.007,-124.471512,-1.503906,-0.30625,26.320147,1006.349976,40.5,22.006912,-18.775784,-124.505363,0,0,0,0,0,0,0,0,0
2,11348766,0.007,-124.950027,-1.561328,-0.229688,31.348482,1005.75,40.5,26.122564,-9.579287,-124.838425,0,0,0,0,0,0,0,0,0
2,11348780,0.007,-124.96917,-1.695313,-0.153125,27.995378,1006.150024,40.52,26.661058,-9.612209,-124.953545,0,0,0,0,0,0,0,0,0
2,11348794,0.007,-125.103149,-1.791016,-0.382813,13.346357,1007.900024,40.5,21.931532,-22.851002,-125.090019,0,0,0,0,0,0,0,0,0
2,11348808,0.007,-125.562531,-1.695313,-0.153125,24.311987,1006.590027,40.5,23.213564,-20.603018,-125.488564,0,0,0,0,0,0,0,0,0
2,11348822,0.007,-125.830498,-1.695313,-0.038281,25.316065,1006.469971,40.5,23.273144,-21.437454,-125.80014,0,0,0,0,0,0,0,0,0
2,11348836,0.007,-126.653542,-1.523047,-0.210547,25.316065,1006.469971,40.5,24.388199,-19.670515,-126.50576,0,0,0,0,0,0,0,0,0
2,11348850,0.007,-126.653542,-1.3125,-0.095703,31.348482,1005.75,40.5,27.676905,-12.539856,-126.64035,0,0,0,0,0,0,0,0,0
2,11348864,0.007,-126.596123,-1.082813,0.153125,32.352562,1005.630005,40.5,28.722578,-11.194216,-126.603996,0,0,0,0,0,0,0,0,0
2,11348878,0.007,-126.768387,-1.542188,0.019141,23.305262,1006.710022,40.5,27.514364,-15.617401,-126.717834,0,0,0,0,0,0,0,0,0
2,11348892,0.007,-127.055496,-1.59961,-0.191406,24.311987,1006.590027,40.5,27.87776,-16.000332,-127.025574,0,0,0,0,0,0,0,0,0
2,11348906,0.007,-127.419167,-1.369922,-0.076563,31.348482,1005.75,40.5,28.915333,-14.592131,-127.360191,0,0,0,0,0,0,0,0,0
2,11348920,0.007,-127.629715,-1.389063,0.172266,31.348482,1005.75,40.5,30.073614,-12.96003,-127.605774,0,0,0,0,0,0,0,0,0
2,11348934,0.007,-128.318771,-1.408203,-0.095703,29.337679,1005.98999,40.5,29.571312,-15.525231,-128.183472,0,0,0,0,0,0,0,0,0
2,11348948,0.007,-128.644165,-1.235938,0.019141,30.341761,1005.869995,40.5,28.092628,-20.367262,-128.535233,0,0,0,0,0,0,0,0,0
2,11348962,0.007,-129.065262,-1.025391,0.229688,36.376816,1005.150024,40.5,31.417368,-13.132127,-128.958099,0,0,0,0,0,0,0,0,0
2,11348976,0.007,-129.333237,-0.757422,0.516797,34.366013,1005.390015,40.5,32.421124,-11.94105,-129.243881,0,0,0,0,0,0,0,0,0
2,11348990,0.007,-129.562912,-0.757422,0.325391,38.390266,1004.909973,40.5,33.934608,-9.488136,-129.534546,0,0,0,0,0,0,0,0,0
2,11349004,0.007,-130.328537,-0.891406,0.535938,32.352562,1005.630005,40.5,33.889977,-11.096004,-130.166046,0,0,0,0,0,0,0,0,0
2,11349015,0.011,-130.826202,-0.776563,0.497656,36.712387,1005.109985,40.48,34.675968,-10.234614,-130.629547,0,0,0,0,0,0,0,0,0
2,11349028,0.007,-131.132446,-0.527734,0.6125,34.366013,1005.390015,40.5,33.988033,-13.279545,-131.08783,0,0,0,0,0,0,0,0,0
2,11349042,0.007,-132.070343,-0.278906,0.937891,38.725838,1004.869995,40.48,35.204796,-11.566702,-131.871048,0,0,0,0,0,0,0,0,0
2,11349056,0.007,-132.663696,-0.451172,0.803906,38.390266,1004.909973,40.5,36.126736,-10.671966,-132.469254,0,0,0,0,0,0,0,0,0
2,11349070,0.007,-133.792999,-0.508594,1.167578,37.719116,1004.98999,40.48,37.529266,-8.681555,-133.551453,0,0,0,0,0,0,0,0,0
2,11349084,0.007,-134.348068,-0.546875,1.129297,36.376816,1005.150024,40.5,36.622135,-12.476583,-134.161331,0,0,0,0,0,0,0,0,0
2,11349098,0.007,-134.788315,-0.623437,1.20586,38.390266,1004.909973,40.5,37.445812,-11.851844,-134.732666,0,0,0,0,0,0,0,0,0
2,11349112,0.007,-135.917603,-0.546875,1.51211,37.719116,1004.98999,40.48,37.046356,-14.289676,-135.684387,0,0,0,0,0,0,0,0,0
2,11349126,0.007,-136.396118,-0.412891,1.684375,38.390266,1004.909973,40.5,36.973354,-15.830417,-136.332962,0,0,0,0,0,0,0,0,0
2,11349140,0.007,-137.429718,-0.451172,1.894922,40.40107,1004.669983,40.5,38.207962,-14.086082,-137.224304,0,0,0,0,0,0,0,0,0
2,11349154,0.007,-137.716827,-0.470312,1.933204,37.719116,1004.98999,40.48,37.826504,-16.439455,-137.613098,0,0,0,0,0,0,0,0,0
2,11349168,0.007,-138.348465,-0.336328,2.182032,43.756813,1004.27002,40.48,40.596584,-10.873905,-138.207108,0,0,0,0,0,0,0,0,0
2,11349182,0.007,-138.865265,-0.259766,2.14375,41.74337,1004.51001,40.48,40.593903,-12.393421,-138.698792,0,0,0,0,0,0,0,0,0
2,11349196,0.007,-139.516052,-0.355469,2.028907,40.736641,1004.630005,40.48,40.77874,-13.435224,-139.443558,0,0,0,0,0,0,0,0,0
2,11349210,0.007,-140.492218,-0.412891,2.411719,42.750092,1004.390015,40.48,42.359779,-10.996062,-140.315109,0,0,0,0,0,0,0,0,0
2,11349224,0.007,-140.836746,-0.623437,2.641407,40.736641,1004.630005,40.48,42.061939,-13.31918,-140.790482,0,0,0,0,0,0,0,0,0
2,11349238,0.007,-141.812927,-0.987109,2.698829,40.736641,1004.630005,40.48,41.683014,-15.767842,-141.614151,0,0,0,0,0,0,0,0,0
2,11349252,0.007,-142.080887,-1.025391,2.73711,47.786354,1003.789978,40.48,44.110725,-11.111035,-141.983368,0,0,0,0,0,0,0,0,0
2,11349266,0.007,-142.865662,-1.178516,2.871094,44.763535,1004.150024,40.48,43.917408,-13.155957,-142.679306,0,0,0,0,0,0,0,0,0
2,11349280,0.007,-143.267609,-1.350781,2.947657,45.772903,1004.030029,40.48,45.219727,-11.446145,-143.131332,0,0,0,0,0,0,0,0,0
2,11349294,0.007,-143.478149,-1.427344,2.985938,48.121925,1003.75,40.459999,47.088787,-8.390727,-143.447357,0,0,0,0,0,0,0,0,0
2,11349308,0.007,-144.22464,-1.561328,2.813673,49.128647,1003.630005,40.459999,47.430809,-9.209548,-144.067596,0,0,0,0,0,0,0,0,0
2,11349322,0.007,-144.569168,-1.427344,2.966798,45.772903,1004.030029,40.48,46.982738,-12.0144,-144.524689,0,0,0,0,0,0,0,0,0
2,11349336,0.007,-145.583618,-1.465625,3.234766,51.144737,1003.390015,40.459999,49.292854,-7.864275,-145.381561,0,0,0,0,0,0,0,0,0
2,11349350,0.007,-145.889877,-1.503906,3.158204,50.135376,1003.51001,40.459999,49.226074,-9.748099,-145.780731,0,0,0,0,0,0,0,0,0
2,11349361,0.011,-146.291824,-1.446485,3.005079,51.144737,1003.390015,40.459999,49.741245,-9.772035,-146.139572,0,0,0,0,0,0,0,0,0
2,11349374,0.007,-147.095734,-1.714453,3.234766,53.158188,1003.150024,40.459999,50.584976,-9.211171,-146.934814,0,0,0,0,0,0,0,0,0
2,11349388,0.007,-147.51683,-1.695313,3.139063,53.158188,1003.150024,40.459999,52.298721,-6.67387,-147.377106,0,0,0,0,0,0,0,0,0
2,11349402,0.007,-147.880493,-1.61875,3.02422,56.183647,1002.789978,40.459999,54.066902,-4.073255,-147.8358,0,0,0,0,0,0,0,0,0
2,11349416,0.007,-148.550415,-1.963281,2.201172,58.199738,1002.549988,40.459999,56.206882,-0.654531,-148.410919,0,0,0,0,0,0,0,0,0
2,11349430,0.007,-149.04808,-2.192969,2.335157,58.535309,1002.51001,40.450001,56.470444,-1.996302,-148.991531,0,0,0,0,0,0,0,0,0
2,11349444,0.007,-149.794571,-2.250391,2.335157,57.52594,1002.630005,40.450001,57.002003,-2.668065,-149.639252,0,0,0,0,0,0,0,0,0
2,11349458,0.007,-150.34964,-2.269531,2.354297,60.551399,1002.27002,40.450001,59.431015,1.37579,-150.170502,0,0,0,0,0,0,0,0,0
2,11349472,0.007,-151.115265,-2.23125,2.201172,62.56749,1002.030029,40.450001,61.748337,4.984015,-150.955368,0,0,0,0,0,0,0,0,0
2,11349486,0.007,-151.325821,-2.384375,1.990625,66.60495,1001.549988,40.450001,64.124329,8.645284,-151.248871,0,0,0,0,0,0,0,0,0
2,11349500,0.007,-151.440659,-2.346094,1.550391,65.595589,1001.669983,40.450001,64.962112,8.342838,-151.42363,0,0,0,0,0,0,0,0,0
2,11349514,0.007,-152.244568,-2.154688,1.397266,66.940529,1001.51001,40.43,66.064995,8.698129,-152.075653,0,0,0,0,0,0,0,0,0
2,11349528,0.007,-152.493393,-2.039844,1.110157,67.614319,1001.429993,40.450001,67.017357,8.659824,-152.456314,0,0,0,0,0,0,0,0,0
2,11349542,0.007,-153.565262,-2.001563,0.937891,69.630409,1001.190002,40.450001,67.871948,8.388218,-153.35878,0,0,0,0,0,0,0,0,0
2,11349556,0.007,-153.833237,-1.848438,0.880469,70.977989,1001.030029,40.43,68.911263,8.587521,-153.735077,0,0,0,0,0,0,0,0,0
2,11349570,0.007,-154.330887,-1.848438,0.631641,69.968628,1001.150024,40.43,69.309822,7.161751,-154.22998,0,0,0,0,0,0,0,0,0
2,11349584,0.007,-154.67543,-1.867578,0.784766,74.006088,1000.669983,40.43,71.252037,9.636179,-154.563812,0,0,0,0,0,0,0,0,0
2,11349598,0.007,-155.039093,-1.676172,0.995313,74.341667,1000.630005,40.41,73.759033,13.369281,-154.996902,0,0,0,0,0,0,0,0,0
2,11349612,0.007,-156.149246,-1.695313,0.669922,75.353676,1000.51001,40.41,74.845901,13.449149,-155.914902,0,0,0,0,0,0,0,0,0
2,11349626,0.007,-156.589493,-1.580469,0.91875,77.036835,1000.309998,40.43,75.295486,11.968759,-156.529617,0,0,0,0,0,0,0,0,0
2,11349640,0.007,-157.125427,-1.082813,1.301563,78.381775,1000.150024,40.41,76.573051,12.581047,-157.024506,0,0,0,0,0,0,0,0,0
2,11349654,0.007,-157.278549,-0.833984,1.167578,78.381775,1000.150024,40.41,77.181015,11.506493,-157.223969,0,0,0,0,0,0,0,0,0
2,11349668,0.007,-158.101593,-0.872266,0.631641,78.381775,1000.150024,40.41,77.898537,10.712279,-157.919647,0,0,0,0,0,0,0,0,0
2,11349682,0.007,-158.388702,-0.661719,0.421094,82.760094,999.630005,40.400002,80.250153,14.018544,-158.287003,0,0,0,0,0,0,0,0,0
2,11349693,0.011,-158.52269,-0.355469,0.287109,84.781471,999.390015,40.400002,81.755997,15.695332,-158.452438,0,0,0,0,0,0,0,0,0
2,11349706,0.007,-158.867218,-0.164062,0.248828,83.772102,999.51001,40.400002,82.272064,14.459475,-158.830399,0,0,0,0,0,0,0,0,0
2,11349720,0.007,-159.518005,0.065625,0.574219,82.760094,999.630005,40.400002,83.517639,14.823469,-159.39296,0,0,0,0,0,0,0,0,0
2,11349734,0.007,-159.919952,-0.10664,0.708203,85.79348,999.27002,40.400002,85.049728,15.904998,-159.873184,0,0,0,0,0,0,0,0,0
2,11349748,0.007,-160.57074,-0.336328,0.516797,90.174446,998.75,40.380001,87.654831,19.62608,-160.448761,0,0,0,0,0,0,0,0,0
2,11349762,0.007,-160.896133,-0.336328,0.363672,89.162437,998.869995,40.380001,87.646294,16.74161,-160.788376,0,0,0,0,0,0,0,0,0
2,11349776,0.007,-161.259796,-0.144922,0.555078,90.174446,998.75,40.380001,89.107353,17.57136,-161.177917,0,0,0,0,0,0,0,0,0
2,11349790,0.007,-161.642609,-0.221484,0.535938,90.174446,998.75,40.380001,89.803543,16.46616,-161.521317,0,0,0,0,0,0,0,0,0
2,11349804,0.007,-161.968002,-0.278906,0.516797,96.243851,998.030029,40.380001,92.44735,20.26874,-161.928314,0,0,0,0,0,0,0,0,0
2,11349818,0.007,-162.676208,-0.317187,1.51211,96.582069,997.98999,40.360001,93.683327,20.435696,-162.545776,0,0,0,0,0,0,0,0,0
2,11349832,0.007,-162.944168,-0.604297,1.665235,97.594086,997.869995,40.360001,95.022896,20.842825,-162.908783,0,0,0,0,0,0,0,0,0
2,11349846,0.007,-163.154724,-0.910547,1.703516,97.594086,997.869995,40.360001,96.540001,21.643852,-163.112869,0,0,0,0,0,0,0,0,0
2,11349860,0.007,-163.556671,-0.967969,1.856641,96.582069,997.98999,40.360001,96.727859,19.106274,-163.433243,0,0,0,0,0,0,0,0,0
2,11349874,0.007,-163.958633,-1.389063,2.73711,98.606094,997.75,40.360001,97.497566,18.109186,-163.891998,0,0,0,0,0,0,0,0,0
2,11349888,0.007,-163.882065,-1.446485,3.311329,100.968323,997.469971,40.34,98.365555,17.422379,-163.898926,0,0,0,0,0,0,0,0,0
2,11349902,0.007,-163.786362,-1.542188,3.502735,101.980331,997.349976,40.34,100.626495,20.17802,-163.79631,0,0,0,0,0,0,0,0,0
2,11349916,0.007,-164.226593,-2.269531,3.617579,104.004349,997.109985,40.34,102.343674,21.492937,-164.14035,0,0,0,0,0,0,0,0,0
2,11349930,0.007,-164.226593,-2.441797,3.847266,104.34256,997.070007,40.330002,103.269753,20.797848,-164.218918,0,0,0,0,0,0,0,0,0
2,11349944,0.007,-164.37973,-2.728907,2.794532,104.34256,997.070007,40.330002,103.260254,17.813925,-164.357452,0,0,0,0,0,0,0,0,0
2,11349958,0.007,-164.341446,-2.499219,3.005079,108.393234,996.590027,40.330002,106.105682,22.009115,-164.350815,0,0,0,0,0,0,0,0,0
2,11349972,0.007,-164.322296,-2.460938,4.019532,110.758118,996.309998,40.310001,108.437378,24.791622,-164.328781,0,0,0,0,0,0,0,0,0
2,11349986,0.007,-164.341446,-2.901172,4.344923,108.393234,996.590027,40.330002,108.6054,22.08432,-164.336319,0,0,0,0,0,0,0,0,0
2,11350000,0.007,-164.13089,-2.977735,3.885548,111.434555,996.22998,40.330002,109.90123,22.294672,-164.149078,0,0,0,0,0,0,0,0,0
2,11350014,0.007,-163.154724,-2.5375,3.483594,114.811432,995.830017,40.310001,111.709457,23.808939,-163.358963,0,0,0,0,0,0,0,0,0
2,11350025,0.011,-162.216827,-2.326953,3.311329,114.811432,995.830017,40.310001,112.846367,24.250999,-162.556976,0,0,0,0,0,0,0,0,0
2,11350038,0.007,-161.144958,-2.058985,2.985938,114.811432,995.830017,40.310001,113.841331,23.900141,-161.270203,0,0,0,0,0,0,0,0,0
2,11350052,0.007,-158.886368,-1.886719,3.139063,113.799423,995.950012,40.310001,114.004562,21.297237,-159.313995,0,0,0,0,0,0,0,0,0
2,11350066,0.007,-158.159012,-1.752735,3.521876,117.855392,995.469971,40.310001,115.76004,22.764582,-158.413544,0,0,0,0,0,0,0,0,0
2,11350080,0.007,-156.378937,-1.350781,3.04336,119.88205,995.22998,40.310001,117.082436,23.154716,-156.763535,0,0,0,0,0,0,0,0,0
2,11350094,0.007,-155.268784,-1.159375,2.277735,123.264221,994.830017,40.290001,119.642372,26.613708,-155.633499,0,0,0,0,0,0,0,0,0
2,11350108,0.007,-154.503159,-0.853125,2.871094,127.322815,994.349976,40.290001,122.57991,30.924759,-154.603348,0,0,0,0,0,0,0,0,0
2,11350122,0.007,-153.890656,-0.298047,2.564844,127.322815,994.349976,40.290001,125.326866,34.565262,-154.005875,0,0,0,0,0,0,0,0,0
2,11350136,0.007,-153.546127,-0.0875,2.890235,129.352127,994.109985,40.290001,127.724358,37.214432,-153.586868,0,0,0,0,0,0,0,0,0
2,11350150,0.007,-152.723083,0.352735,2.028907,127.661041,994.309998,40.27,128.795166,36.452679,-152.879776,0,0,0,0,0,0,0,0,0
2,11350164,0.007,-152.321121,0.429297,1.186719,131.722275,993.830017,40.27,130.185608,36.561787,-152.454712,0,0,0,0,0,0,0,0,0
2,11350178,0.007,-151.689484,0.869532,1.684375,136.800827,993.22998,40.27,133.082291,40.440708,-151.829346,0,0,0,0,0,0,0,0,0
2,11350192,0.007,-151.36409,0.850391,1.780079,132.736938,993.710022,40.27,134.104538,39.458912,-151.473419,0,0,0,0,0,0,0,0,0
2,11350206,0.007,-151.115265,0.888672,2.162891,138.153687,993.070007,40.259998,136.038345,40.835827,-151.147003,0,0,0,0,0,0,0,0,0
2,11350220,0.007,-149.871124,0.907813,2.411719,142.217575,992.590027,40.259998,139.182358,45.190823,-150.124344,0,0,0,0,0,0,0,0,0
2,11350234,0.007,-149.277771,0.850391,2.564844,143.234863,992.469971,40.259998,141.459503,47.240089,-149.352829,0,0,0,0,0,0,0,0,0
2,11350248,0.007,-148.359009,0.544141,2.909376,142.217575,992.590027,40.259998,142.89978,47.113598,-148.539246,0,0,0,0,0,0,0,0,0
2,11350262,0.007,-147.918777,0.429297,2.660547,138.153687,993.070007,40.259998,141.652466,40.301659,-148.065948,0,0,0,0,0,0,0,0,0
2,11350276,0.007,-147.210571,0.314453,2.698829,146.286743,992.109985,40.259998,143.532547,41.584511,-147.346451,0,0,0,0,0,0,0,0,0
2,11350290,0.007,-147.057449,0.295313,2.526563,146.286743,992.109985,40.259998,145.389832,42.729057,-147.115082,0,0,0,0,0,0,0,0,0
2,11350304,0.007,-147.000031,0.161328,2.43086,145.269455,992.22998,40.259998,146.181351,41.167175,-147.010239,0,0,0,0,0,0,0,0,0
2,11350318,0.007,-146.176987,-0.183203,1.914063,152.728729,991.349976,40.240002,148.340515,43.153214,-146.362915,0,0,0,0,0,0,0,0,0
2,11350332,0.007,-146.196121,-0.489453,2.813673,153.746017,991.22998,40.240002,150.207764,44.331959,-146.210861,0,0,0,0,0,0,0,0,0
2,11350346,0.007,-145.468781,-0.527734,2.947657,145.945892,992.150024,40.220001,150.672119,41.853264,-145.654755,0,0,0,0,0,0,0,0,0
2,11350360,0.007,-144.74144,-0.738281,1.894922,155.780609,990.98999,40.240002,153.036957,44.310165,-144.974518,0,0,0,0,0,0,0,0,0
2,11350371,0.011,-144.45433,-1.025391,4.383204,148.656906,991.830017,40.240002,152.008026,38.933426,-144.609314,0,0,0,0,0,0,0,0,0
2,11350384,0.007,-143.573853,-1.197656,2.564844,151.032349,991.549988,40.220001,153.334427,39.081909,-143.793823,0,0,0,0,0,0,0,0,0
2,11350398,0.007,-143.19104,-1.255078,2.583985,151.032349,991.549988,40.220001,153.092407,35.124119,-143.3246,0,0,0,0,0,0,0,0,0
2,11350412,0.007,-143.057068,-1.542188,2.507422,156.11882,990.950012,40.220001,153.859726,33.882885,-143.08078,0,0,0,0,0,0,0,0,0
2,11350426,0.007,-142.310577,-2.001563,2.12461,148.318695,991.869995,40.200001,152.234467,26.664875,-142.479034,0,0,0,0,0,0,0,0,0
2,11350440,0.007,-141.736359,-2.020703,1.933204,151.032349,991.549988,40.220001,152.029465,23.273035,-141.802261,0,0,0,0,0,0,0,0,0
2,11350454,0.007,-141.449249,-2.21211,1.799219,156.11882,990.950012,40.220001,153.483475,24.16856,-141.46051,0,0,0,0,0,0,0,0,0
2,11350468,0.007,-141.257843,-1.90586,1.722657,152.387863,991.390015,40.200001,154.12677,22.944263,-141.315872,0,0,0,0,0,0,0,0,0
2,11350482,0.007,-140.358231,-1.963281,1.492969,157.476974,990.789978,40.200001,155.409027,23.431782,-140.519211,0,0,0,0,0,0,0,0,0
2,11350496,0.007,-139.841431,-1.714453,1.799219,156.459686,990.909973,40.200001,156.071732,22.342981,-140.009628,0,0,0,0,0,0,0,0,0
2,11350510,0.007,-139.745728,-1.389063,1.760938,158.494263,990.669983,40.200001,159.298355,27.603321,-139.769119,0,0,0,0,0,0,0,0,0
2,11350524,0.007,-139.190659,-0.508594,2.086329,162.566086,990.190002,40.200001,161.240097,29.555174,-139.36203,0,0,0,0,0,0,0,0,0
2,11350538,0.007,-138.750427,-0.010937,2.201172,164.603302,989.950012,40.200001,162.213501,29.080069,-138.804642,0,0,0,0,0,0,0,0,0
2,11350552,0.007,-137.640259,0.21875,3.02422,158.494263,990.669983,40.200001,161.586563,24.575653,-137.883698,0,0,0,0,0,0,0,0,0
2,11350566,0.007,-137.142609,0.639844,2.966798,165.961456,989.789978,40.189999,163.86702,27.51399,-137.312378,0,0,0,0,0,0,0,0,0
2,11350580,0.007,-137.372299,-0.221484,4.287501,161.548782,990.309998,40.200001,164.854752,27.047827,-137.347,0,0,0,0,0,0,0,0,0
2,11350594,0.007,-137.123474,0.046485,4.804298,169.018631,989.429993,40.189999,166.377838,28.039112,-137.195297,0,0,0,0,0,0,0,0,0
2,11350608,0.007,-136.587524,0.352735,4.55547,170.717636,989.22998,40.200001,168.297913,29.984802,-136.641403,0,0,0,0,0,0,0,0,0
2,11350622,0.007,-135.975037,0.142188,3.981251,169.018631,989.429993,40.189999,169.136307,29.151581,-136.018143,0,0,0,0,0,0,0,0,0
2,11350636,0.007,-135.707062,0.333594,2.909376,170.038559,989.309998,40.189999,168.953568,25.848921,-135.73465,0,0,0,0,0,0,0,0,0
2,11350650,0.007,-135.132843,0.103906,2.851954,173.095718,988.950012,40.189999,171.343124,29.035955,-135.206207,0,0,0,0,0,0,0,0,0
2,11350664,0.007,-134.616043,0.467578,2.450001,176.155533,988.590027,40.189999,173.446152,31.42729,-134.776428,0,0,0,0,0,0,0,0,0
2,11350678,0.007,-134.175812,0.888672,2.239454,177.175461,988.469971,40.189999,175.958878,34.72784,-134.261078,0,0,0,0,0,0,0,0,0
2,11350692,0.007,-133.850418,1.348047,1.856641,180.235275,988.109985,40.189999,179.00943,39.24424,-133.954865,0,0,0,0,0,0,0,0,0
2,11350703,0.011,-133.525024,1.864844,0.823047,187.718323,987.22998,40.169998,182.004349,44.238792,-133.652954,0,0,0,0,0,0,0,0,0
2,11350716,0.007,-133.142212,2.132813,0.708203,185.334946,987.51001,40.189999,182.762299,43.041428,-133.207504,0,0,0,0,0,0,0,0,0
2,11350730,0.007,-133.103928,1.826563,0.401953,191.800705,986.75,40.169998,187.433075,51.343735,-133.121033,0,0,0,0,0,0,0,0,0
2,11350744,0.007,-132.682846,1.788282,-0.555078,182.613358,987.830017,40.169998,184.852844,41.330051,-132.721771,0,0,0,0,0,0,0,0,0
2,11350758,0.007,-132.357452,1.328907,0.459375,185.334946,987.51001,40.189999,184.398407,36.978252,-132.405777,0,0,0,0,0,0,0,0,0
2,11350772,0.007,-132.070343,1.214063,-0.191406,185.675812,987.469971,40.169998,187.348679,41.139183,-132.100098,0,0,0,0,0,0,0,0,0
2,11350786,0.007,-131.553543,0.716407,-0.59336,193.843216,986.51001,40.169998,189.771149,43.972298,-131.637985,0,0,0,0,0,0,0,0,0
2,11350800,0.007,-131.572678,0.257031,-0.497656,193.843216,986.51001,40.169998,189.381042,39.76614,-131.574432,0,0,0,0,0,0,0,0,0
2,11350814,0.007,-131.266434,-0.642578,-0.842188,191.800705,986.75,40.169998,188.973282,35.633514,-131.349777,0,0,0,0,0,0,0,0,0
2,11350828,0.007,-130.845337,-0.853125,-0.669922,203.979156,985.320007,40.169998,193.860596,44.870155,-130.977997,0,0,0,0,0,0,0,0,0
2,11350842,0.007,-130.845337,-0.795703,-1.20586,187.718323,987.22998,40.169998,191.640472,35.959656,-130.857178,0,0,0,0,0,0,0,0,0
2,11350856,0.007,-130.022293,-0.853125,-1.397266,191.800705,986.75,40.169998,191.787567,33.291576,-130.244476,0,0,0,0,0,0,0,0,0
2,11350870,0.007,-130.079712,-0.795703,-1.856641,196.823761,986.159973,40.169998,194.487228,37.065392,-130.094284,0,0,0,0,0,0,0,0,0
2,11350884,0.007,-129.945724,-0.738281,-1.875782,193.843216,986.51001,40.169998,194.218307,33.323059,-130.022964,0,0,0,0,0,0,0,0,0
2,11350898,0.007,-129.92659,-0.259766,-1.741797,198.868912,985.919983,40.169998,196.937271,37.136959,-129.939102,0,0,0,0,0,0,0,0,0
2,11350912,0.007,-129.199249,1.060938,-2.162891,194.78125,986.400024,40.169998,197.873352,36.329777,-129.33696,0,0,0,0,0,0,0,0,0
2,11350926,0.007,-129.160965,1.539454,-1.799219,199.88884,985.799988,40.169998,197.760605,33.060902,-129.18457,0,0,0,0,0,0,0,0,0
2,11350940,0.007,-128.548462,2.247657,-2.182032,205.00174,985.200012,40.169998,202.959396,43.034103,-128.604828,0,0,0,0,0,0,0,0,0
2,11350954,0.007,-128.950424,2.879297,-3.579298,207.04689,984.960022,40.169998,205.905228,47.067772,-128.903717,0,0,0,0,0,0,0,0,0
2,11350968,0.007,-128.223068,3.625782,-4.478907,207.04689,984.960022,40.169998,207.551285,47.737255,-128.283447,0,0,0,0,0,0,0,0,0
2,11350982,0.007,-127.916824,4.353126,-4.172657,206.024307,985.080017,40.169998,206.902451,42.705139,-128.069458,0,0,0,0,0,0,0,0,0
2,11350996,0.007,-126.978935,4.353126,-4.86172,209.092041,984.719971,40.169998,208.844513,44.283615,-127.271805,0,0,0,0,0,0,0,0,0
2,11351010,0.007,-126.787529,3.089844,-4.325782,213.184998,984.23999,40.169998,211.266449,47.030201,-126.854469,0,0,0,0,0,0,0,0,0
2,11351024,0.007,-126.557838,3.281251,-5.608204,216.255371,983.880005,40.169998,213.384399,48.95034,-126.632141,0,0,0,0,0,0,0,0,0
2,11351038,0.007,-126.021904,3.664063,-6.258986,223.423996,983.039978,40.169998,218.630905,58.580368,-126.075935,0,0,0,0,0,0,0,0,0
2,11351049,0.011,-125.064873,4.621095,-7.885939,226.496994,982.679993,40.169998,221.511536,62.846279,-125.365936,0,0,0,0,0,0,0,0,0
2,11351062,0.007,-121.868385,6.439455,-12.632815,228.54744,982.440002,40.169998,224.587585,66.961235,-122.530846,0,0,0,0,0,0,0,0,0
2,11351076,0.007,-120.815651,5.67383,-13.838675,229.572678,982.320007,40.169998,226.195557,67.034866,-120.967766,0,0,0,0,0,0,0,0,0
2,11351090,0.007,-117.255493,4.410548,-17.762505,234.698776,981.719971,40.169998,230.778839,74.510323,-118.065086,0,0,0,0,0,0,0,0,0
2,11351104,0.007,-114.958618,3.051563,-18.221878,229.572678,982.320007,40.169998,230.666855,70.059677,-115.714577,0,0,0,0,0,0,0,0,0
2,11351118,0.007,-111.609009,0.984375,-17.456253,239.486649,981.159973,40.189999,233.506607,73.250229,-112.337402,0,0,0,0,0,0,0,0,0
2,11351132,0.007,-109.599243,0.161328,-16.288675,236.749222,981.47998,40.169998,235.734619,74.736916,-110.262436,0,0,0,0,0,0,0,0,0
2,11351146,0.007,-107.627754,-0.776563,-14.259768,242.905807,980.76001,40.169998,243.031799,88.713142,-107.86142,0,0,0,0,0,0,0,0,0
2,11351160,0.007,-104.25901,-1.255078,-13.455862,241.537094,980.919983,40.189999,242.064957,81.829895,-104.874832,0,0,0,0,0,0,0,0,0
2,11351174,0.007,-102.995728,-2.173828,-11.714065,236.40834,981.52002,40.189999,239.960632,72.331787,-103.162498,0,0,0,0,0,0,0,0,0
2,11351188,0.007,-98.172287,-2.901172,-11.828909,238.458786,981.280029,40.189999,241.092255,71.241112,-99.163406,0,0,0,0,0,0,0,0,0
2,11351202,0.007,-95.990257,-3.245704,-11.063284,236.06749,981.559998,40.200001,239.533844,63.54726,-96.728149,0,0,0,0,0,0,0,0,0
2,11351216,0.007,-92.564079,-3.264844,-9.283205,245.643265,980.440002,40.189999,242.527664,67.550362,-93.289688,0,0,0,0,0,0,0,0,0
2,11351230,0.007,-90.937126,-2.901172,-9.053517,244.274521,980.599976,40.200001,244.441803,68.692795,-91.486069,0,0,0,0,0,0,0,0,0
2,11351244,0.007,-89.176193,-2.097266,-8.919533,246.327621,980.359985,40.200001,244.426987,65.109833,-89.381096,0,0,0,0,0,0,0,0,0
2,11351258,0.007,-86.01799,-0.489453,-7.809377,237.090073,981.440002,40.200001,241.748016,54.982426,-86.61264,0,0,0,0,0,0,0,0,0
2,11351272,0.007,-84.295334,-0.298047,-7.120314,236.749222,981.47998,40.220001,239.625107,46.640747,-84.500969,0,0,0,0,0,0,0,0,0
2,11351286,0.007,-80.371498,0.237891,-6.354689,232.989182,981.919983,40.200001,236.273132,35.597977,-81.09417,0,0,0,0,0,0,0,0,0
2,11351300,0.007,-78.648842,0.352735,-6.450392,225.815292,982.76001,40.200001,231.853958,22.257383,-79.226151,0,0,0,0,0,0,0,0,0
2,11351314,0.007,-75.43322,0.620703,-6.526955,227.522232,982.559998,40.220001,230.413925,16.855171,-76.065964,0,0,0,0,0,0,0,0,0
2,11351328,0.007,-73.940247,0.754688,-6.450392,219.3284,983.52002,40.220001,226.03125,4.304047,-74.441177,0,0,0,0,0,0,0,0,0
2,11351342,0.007,-72.600403,1.711719,-6.909767,217.962311,983.679993,40.240002,220.09201,-11.539112,-72.763786,0,0,0,0,0,0,0,0,0
2,11351356,0.007,-69.959,2.783594,-7.637111,213.869354,984.159973,40.240002,217.600052,-18.318172,-70.464066,0,0,0,0,0,0,0,0,0
2,11351370,0.007,-68.982826,2.611329,-6.794923,229.229172,982.359985,40.240002,222.250443,-7.000063,-69.114098,0,0,0,0,0,0,0,0,0
2,11351381,0.011,-67.949234,2.247657,-6.584376,240.511887,981.039978,40.240002,227.861969,6.56217,-68.295982,0,0,0,0,0,0,0,0,0
2,11351394,0.007,-65.384392,2.209376,-6.316408,271.252625,977.450012,40.240002,247.484573,54.458076,-65.926422,0,0,0,0,0,0,0,0,0
2,11351408,0.007,-64.369934,2.285938,-6.948049,296.669098,974.48999,40.259998,271.279602,110.958351,-64.71965,0,0,0,0,0,0,0,0,0
2,11351422,0.007,-62.455872,1.922266,-9.398049,305.959503,973.409973,40.259998,291.618317,156.784637,-62.868496,0,0,0,0,0,0,0,0,0
2,11351436,0.007,-61.345715,2.515626,-11.139846,310.089447,972.929993,40.259998,301.970337,176.248215,-61.712799,0,0,0,0,0,0,0,0,0
2,11351450,0.007,-64.599625,2.400782,-10.64219,315.944824,972.25,40.27,311.003326,191.648331,-64.343407,0,0,0,0,0,0,0,0,0
2,11351464,0.007,-64.618767,1.941407,-8.53672,319.046906,971.890015,40.27,315.004578,194.067734,-65.178711,0,0,0,0,0,0,0,0,0
2,11351478,0.007,-61.843372,2.209376,-8.996096,316.634491,972.169983,40.290001,317.741272,193.270767,-62.139267,0,0,0,0,0,0,0,0,0
2,11351492,0.007,-57.804699,2.458204,-7.235158,313.87854,972.48999,40.27,319.297119,189.548386,-58.573582,0,0,0,0,0,0,0,0,0
2,11351506,0.007,-56.560558,2.419923,-7.407423,315.601318,972.289978,40.290001,318.20813,179.481201,-56.999393,0,0,0,0,0,0,0,0,0
2,11351520,0.007,-54.053135,1.482032,-7.943361,305.959503,973.409973,40.310001,313.946381,161.863678,-54.554836,0,0,0,0,0,0,0,0,0
2,11351534,0.007,-52.942982,1.041797,-7.464845,304.926361,973.530029,40.310001,312.52066,151.872223,-53.318264,0,0,0,0,0,0,0,0,0
2,11351548,0.007,-51.354309,0.544141,-8.039064,301.829559,973.890015,40.310001,308.106995,134.906631,-51.528671,0,0,0,0,0,0,0,0,0
2,11351562,0.007,-48.923447,0.371875,-8.173049,300.452911,974.049988,40.330002,305.834106,123.863091,-49.346806,0,0,0,0,0,0,0,0,0
2,11351576,0.007,-48.176964,0.946094,-8.441017,307.679657,973.210022,40.330002,307.138916,122.160088,-48.280739,0,0,0,0,0,0,0,0,0
2,11351590,0.007,-44.999619,1.883985,-8.460158,311.466095,972.77002,40.34,310.04129,124.526031,-45.618904,0,0,0,0,0,0,0,0,0
2,11351604,0.007,-43.870323,1.769141,-7.771095,316.634491,972.169983,40.34,313.858093,129.102097,-44.261562,0,0,0,0,0,0,0,0,0
2,11351618,0.007,-41.477745,1.960547,-7.273439,317.667633,972.049988,40.34,315.118103,127.240707,-41.992874,0,0,0,0,0,0,0,0,0
2,11351632,0.007,-39.927353,1.673438,-7.675392,320.426208,971.72998,40.360001,319.404266,132.901016,-40.434788,0,0,0,0,0,0,0,0,0
2,11351646,0.007,-38.606647,0.869532,-7.177736,330.424744,970.570007,40.380001,322.999573,136.813995,-38.768723,0,0,0,0,0,0,0,0,0
2,11351660,0.007,-35.792976,0.391016,-7.101173,333.52948,970.210022,40.380001,329.44693,147.605591,-36.365093,0,0,0,0,0,0,0,0,0
2,11351674,0.007,-34.701962,0.601563,-7.751955,329.045441,970.72998,40.400002,330.959595,145.736237,-34.849525,0,0,0,0,0,0,0,0,0
2,11351688,0.007,-33.18985,1.596875,-7.445705,332.496307,970.330017,40.380001,332.052979,142.957108,-33.477192,0,0,0,0,0,0,0,0,0
2,11351702,0.007,-33.438679,2.190235,-8.460158,337.326477,969.77002,40.400002,336.675659,148.986221,-33.390022,0,0,0,0,0,0,0,0,0
2,11351713,0.011,-34.95079,3.013282,-8.211329,339.400696,969.530029,40.400002,338.649567,149.445435,-34.485912,0,0,0,0,0,0,0,0,0
2,11351726,0.007,-35.735554,2.515626,-5.646486,355.640411,967.650024,40.41,348.087311,167.615829,-36.112892,0,0,0,0,0,0,0,0,0
2,11351740,0.007,-30.739851,1.462891,-6.565236,357.371124,967.450012,40.43,354.880798,178.224823,-32.261196,0,0,0,0,0,0,0,0,0
2,11351754,0.007,-28.347271,1.807422,-7.350001,358.409546,967.330017,40.43,357.063171,177.120132,-28.694469,0,0,0,0,0,0,0,0,0
2,11351768,0.007,-24.289459,1.903126,-6.239845,368.793884,966.130005,40.43,362.66272,184.633667,-24.996365,0,0,0,0,0,0,0,0,0
2,11351782,0.007,-23.236723,2.707032,-6.546095,370.524597,965.929993,40.450001,367.183868,189.175598,-23.392765,0,0,0,0,0,0,0,0,0
2,11351796,0.007,-21.150394,1.769141,-9.551174,373.642517,965.570007,40.450001,370.548218,190.720459,-21.61347,0,0,0,0,0,0,0,0,0
2,11351810,0.007,-19.982817,1.520313,-8.708986,379.532257,964.890015,40.459999,376.918884,199.639374,-20.371586,0,0,0,0,0,0,0,0,0
2,11351824,0.007,-19.293755,2.209376,-8.594143,382.652832,964.530029,40.459999,381.56955,203.985718,-19.421362,0,0,0,0,0,0,0,0,0
2,11351838,0.007,-18.52813,2.841016,-8.842971,393.755859,963.25,40.48,385.207214,205.829681,-18.767384,0,0,0,0,0,0,0,0,0
2,11351852,0.007,-17.666801,4.14258,-8.479299,393.755859,963.25,40.48,390.941376,212.695648,-17.764374,0,0,0,0,0,0,0,0,0
2,11351866,0.007,-16.633207,4.085157,-8.976955,396.879089,962.890015,40.48,395.957336,217.523132,-16.849609,0,0,0,0,0,0,0,0,0
2,11351880,0.007,-16.365238,3.606642,-8.766408,407.997955,961.609985,40.5,403.85675,229.371353,-16.408112,0,0,0,0,0,0,0,0,0
2,11351894,0.007,-16.097269,2.802735,-8.441017,407.997955,961.609985,40.5,406.772491,228.444839,-16.168865,0,0,0,0,0,0,0,0,0
2,11351908,0.007,-15.427347,2.03711,-7.637111,411.821411,961.169983,40.52,412.43222,234.300262,-15.633212,0,0,0,0,0,0,0,0,0
2,11351922,0.007,-15.274222,0.869532,-8.173049,418.778625,960.369995,40.529999,416.400238,235.839752,-15.270009,0,0,0,0,0,0,0,0,0
2,11351936,0.007,-14.719144,1.1375,-9.608596,415.647491,960.72998,40.529999,417.692261,230.63327,-14.884141,0,0,0,0,0,0,0,0,0
2,11351950,0.007,-12.307425,0.544141,-8.82383,417.734924,960.48999,40.529999,421.637329,232.177124,-12.536045,0,0,0,0,0,0,0,0,0
2,11351964,0.007,-11.752346,1.022657,-9.493752,426.784851,959.450012,40.549999,424.65155,231.484238,-11.713768,0,0,0,0,0,0,0,0,0
2,11351978,0.007,-11.025002,1.44375,-9.953127,428.526154,959.25,40.57,425.850708,226.347961,-11.086095,0,0,0,0,0,0,0,0,0
2,11351992,0.007,-7.771095,2.247657,-9.914845,438.981812,958.049988,40.57,432.349548,234.608536,-8.3853,0,0,0,0,0,0,0,0,0
2,11352006,0.007,-8.51758,1.826563,-9.455471,437.935455,958.169983,40.57,435.840454,235.047333,-8.349705,0,0,0,0,0,0,0,0,0
2,11352020,0.007,-9.914845,-0.010937,-7.139455,438.633026,958.090027,40.59,441.27594,240.127655,-10.176301,0,0,0,0,0,0,0,0,0
2,11352034,0.007,-1.320703,0.180469,-6.239845,450.84317,956.690002,40.599998,445.624817,242.64682,-3.903547,0,0,0,0,0,0,0,0,0
2,11352048,0.007,6.067579,-0.10664,-6.105861,451.889526,956.570007,40.599998,448.631409,241.909683,5.183059,0,0,0,0,0,0,0,0,0
2,11352059,0.011,10.66133,-0.546875,-7.330861,453.636108,956.369995,40.619999,452.022186,243.872314,9.029682,0,0,0,0,0,0,0,0,0
2,11352072,0.007,14.010941,-0.317187,-8.460158,466.562347,954.890015,40.599998,460.201538,256.583099,13.35301,0,0,0,0,0,0,0,0,0
2,11352086,0.007,14.470316,0.065625,-7.082033,464.11557,955.169983,40.619999,463.214478,255.37825,14.371202,0,0,0,0,0,0,0,0,0
2,11352100,0.007,14.489456,0.735547,-7.503127,471.107147,954.369995,40.639999,468.089386,258.847229,14.479013,0,0,0,0,0,0,0,0,0
2,11352114,0.007,14.680862,1.041797,-7.503127,473.205139,954.130005,40.639999,471.754425,259.179291,14.622943,0,0,0,0,0,0,0,0,0
2,11352128,0.007,14.661722,1.826563,-7.043752,478.104004,953.570007,40.66,475.387787,259.446472,14.662315,0,0,0,0,0,0,0,0,0
2,11352142,0.007,14.661722,1.769141,-6.144142,481.253632,953.210022,40.66,479.910126,261.872772,14.661799,0,0,0,0,0,0,0,0,0
2,11352156,0.007,14.719144,1.75,-5.857032,485.106171,952.77002,40.669998,483.716949,262.450134,14.714074,0,0,0,0,0,0,0,0,0
2,11352170,0.007,14.833987,0.429297,-6.69922,492.464996,951.929993,40.669998,490.013824,269.181763,14.85943,0,0,0,0,0,0,0,0,0
2,11352184,0.007,14.680862,0.620703,-7.330861,498.423431,951.25,40.689999,495.95752,274.802612,14.696754,0,0,0,0,0,0,0,0,0
2,11352198,0.007,15.446487,0.678125,-8.51758,507.544708,950.210022,40.709999,503.013733,283.033081,15.328023,0,0,0,0,0,0,0,0,0
2,11352212,0.007,15.293363,1.041797,-8.632423,514.919434,949.369995,40.709999,510.762238,292.676605,15.328547,0,0,0,0,0,0,0,0,0
2,11352226,0.007,15.542191,1.252344,-7.732814,509.650665,949.969971,40.709999,512.326904,286.583405,15.499165,0,0,0,0,0,0,0,0,0
2,11352240,0.007,15.369925,1.520313,-6.316408,520.978271,948.679993,40.720001,519.226929,293.961884,15.417466,0,0,0,0,0,0,0,0,0
2,11352254,0.007,15.465629,1.922266,-6.163282,520.978271,948.679993,40.720001,522.08374,291.044891,15.46133,0,0,0,0,0,0,0,0,0
2,11352268,0.007,16.001566,1.539454,-6.163282,532.229248,947.400024,40.740002,528.660767,297.517639,15.905671,0,0,0,0,0,0,0,0,0
2,11352282,0.007,15.733597,1.348047,-6.680079,539.622437,946.559998,40.740002,535.259644,303.828583,15.748936,0,0,0,0,0,0,0,0,0
2,11352296,0.007,16.078129,0.697266,-7.407423,543.847534,946.080017,40.740002,544.108582,315.392792,15.944894,0,0,0,0,0,0,0,0,0
2,11352310,0.007,16.72891,0.50586,-7.579689,545.609924,945.880005,40.759998,548.387939,315.233185,16.523228,0,0,0,0,0,0,0,0,0
2,11352324,0.007,16.709768,0.544141,-8.613283,561.120361,944.119995,40.779999,557.292603,326.633606,16.729336,0,0,0,0,0,0,0,0,0
2,11352338,0.007,16.901175,0.926953,-8.173049,565.356018,943.640015,40.779999,563.977234,332.108307,16.845938,0,0,0,0,0,0,0,0,0
2,11352352,0.007,17.36055,1.405469,-8.000783,571.710815,942.919983,40.779999,568.917603,333.124115,17.314932,0,0,0,0,0,0,0,0,0
2,11352366,0.007,17.877348,2.228516,-7.235158,567.121094,943.440002,40.790001,570.217224,325.004517,17.803368,0,0,0,0,0,0,0,0,0
2,11352380,0.007,18.087894,2.324219,-6.890626,573.47583,942.719971,40.790001,575.27478,326.474152,18.062639,0,0,0,0,0,0,0,0,0
2,11352391,0.011,18.623833,1.558594,-6.507814,583.019897,941.640015,40.790001,580.156006,329.919739,18.45673,0,0,0,0,0,0,0,0,0
2,11352404,0.007,19.178911,0.639844,-6.125001,584.787598,941.440002,40.810001,584.205994,329.590729,19.062811,0,0,0,0,0,0,0,0,0
2,11352418,0.007,19.657427,0.046485,-5.569923,587.968994,941.080017,40.810001,588.874634,329.978302,19.504595,0,0,0,0,0,0,0,0,0
2,11352432,0.007,20.07852,1.003516,-6.297267,591.861145,940.640015,40.830002,591.980774,326.515594,19.951532,0,0,0,0,0,0,0,0,0
2,11352446,0.007,20.786724,1.807422,-7.732814,599.029724,939.830017,40.849998,597.723999,329.722412,20.56455,0,0,0,0,0,0,0,0,0
2,11352460,0.007,21.475786,2.553907,-8.058205,608.59491,938.75,40.849998,605.511292,337.917694,21.395016,0,0,0,0,0,0,0,0,0
2,11352474,0.007,22.203129,3.070704,-8.039064,613.91394,938.150024,40.849998,613.161377,345.45166,22.067432,0,0,0,0,0,0,0,0,0
2,11352488,0.007,22.681646,3.472657,-7.713674,622.42749,937.190002,40.849998,619.474548,349.473938,22.627207,0,0,0,0,0,0,0,0,0
2,11352502,0.007,23.830084,2.764454,-7.177736,625.267944,936.869995,40.860001,624.913757,351.162384,23.575275,0,0,0,0,0,0,0,0,0
2,11352516,0.007,24.65313,2.419923,-6.660939,624.203125,936.98999,40.860001,627.163757,344.860138,24.385324,0,0,0,0,0,0,0,0,0
2,11352530,0.007,25.227348,1.290625,-6.526955,629.17334,936.429993,40.880001,631.340576,343.562103,25.124599,0,0,0,0,0,0,0,0,0
2,11352544,0.007,25.342194,0.926953,-7.330861,639.835083,935.22998,40.880001,637.692444,347.76178,25.298912,0,0,0,0,0,0,0,0,0
2,11352558,0.007,25.399614,0.754688,-8.134768,651.572266,933.909973,40.880001,645.295593,354.988434,25.390779,0,0,0,0,0,0,0,0,0
2,11352572,0.007,25.667583,0.754688,-9.110939,658.693298,933.109985,40.900002,653.398682,363.184326,25.60309,0,0,0,0,0,0,0,0,0
2,11352586,0.007,25.87813,0.620703,-8.976955,665.106201,932.390015,40.900002,660.442261,368.472046,25.853804,0,0,0,0,0,0,0,0,0
2,11352600,0.007,26.394928,2.611329,-9.455471,663.682007,932.549988,40.919998,664.297607,365.606262,26.282856,0,0,0,0,0,0,0,0,0
2,11352614,0.007,26.739458,2.975001,-7.962502,671.167725,931.710022,40.919998,670.434265,368.503723,26.626919,0,0,0,0,0,0,0,0,0
2,11352628,0.007,26.854303,2.400782,-5.47422,673.041077,931.5,40.93,675.799438,369.330658,26.850115,0,0,0,0,0,0,0,0,0
2,11352642,0.007,26.720318,1.616016,-6.067579,688.300476,929.789978,40.919998,683.772888,376.709167,26.759933,0,0,0,0,0,0,0,0,0
2,11352656,0.007,26.835161,1.271485,-6.718361,690.176575,929.580017,40.93,690.744324,381.260254,26.828499,0,0,0,0,0,0,0,0,0
2,11352670,0.007,26.720318,1.214063,-7.828517,696.607971,928.859985,40.93,696.708984,383.175262,26.769949,0,0,0,0,0,0,0,0,0
2,11352684,0.007,26.490631,0.678125,-7.943361,700.899109,928.380005,40.93,702.03894,383.429962,26.515396,0,0,0,0,0,0,0,0,0
2,11352698,0.007,26.682037,1.060938,-8.51758,705.908936,927.820007,40.950001,705.410095,378.876282,26.66724,0,0,0,0,0,0,0,0,0
2,11352712,0.007,26.260942,0.926953,-8.51758,708.054504,927.580017,40.950001,710.434326,378.499603,26.385021,0,0,0,0,0,0,0,0,0
2,11352723,0.011,26.088678,0.295313,-7.675392,716.647339,926.619995,40.950001,715.234802,380.382843,26.176966,0,0,0,0,0,0,0,0,0
2,11352736,0.007,26.260942,0.180469,-7.254298,723.813293,925.820007,40.970001,721.743774,384.622192,26.241524,0,0,0,0,0,0,0,0,0
2,11352750,0.007,26.165239,0.180469,-7.388283,731.343872,924.97998,40.970001,729.083557,389.854889,26.192066,0,0,0,0,0,0,0,0,0
2,11352764,0.007,26.280085,-0.010937,-7.866798,734.572815,924.619995,40.970001,734.685608,390.570801,26.272276,0,0,0,0,0,0,0,0,0
2,11352778,0.007,25.782427,1.060938,-6.603517,740.766418,923.929993,40.990002,739.960022,390.462036,25.897942,0,0,0,0,0,0,0,0,0
2,11352792,0.007,25.87813,1.558594,-6.412111,743.189392,923.659973,40.970001,744.138062,387.617401,25.879864,0,0,0,0,0,0,0,0,0
2,11352806,0.007,25.897272,1.788282,-5.569923,745.073364,923.450012,40.990002,747.140198,381.946808,25.927702,0,0,0,0,0,0,0,0,0
2,11352820,0.007,25.686724,1.558594,-4.938282,756.934753,922.130005,40.990002,754.949768,388.42038,25.752182,0,0,0,0,0,0,0,0,0
2,11352834,0.007,25.495317,-0.240625,-5.263673,759.093506,921.890015,40.990002,759.357544,386.221069,25.550114,0,0,0,0,0,0,0,0,0
2,11352848,0.007,25.437897,-0.374609,-5.18711,778.533081,919.72998,40.990002,769.332886,398.033264,25.460011,0,0,0,0,0,0,0,0,0
2,11352862,0.007,25.437897,0.065625,-5.397657,774.93158,920.130005,41,774.89978,398.369843,25.439859,0,0,0,0,0,0,0,0,0
2,11352876,0.007,25.323051,1.233204,-6.603517,785.743958,918.929993,41,782.218689,403.087738,25.329468,0,0,0,0,0,0,0,0,0
2,11352890,0.007,25.610161,1.922266,-7.445705,782.499207,919.289978,41,785.410583,397.33136,25.585201,0,0,0,0,0,0,0,0,0
2,11352904,0.007,25.514458,2.764454,-7.866798,791.87677,918.25,41.02,790.486633,396.509583,25.572783,0,0,0,0,0,0,0,0,0
2,11352918,0.007,25.24649,2.860157,-7.00547,799.816956,917.369995,41,798.561279,403.1138,25.331516,0,0,0,0,0,0,0,0,0
2,11352932,0.007,24.767975,2.496485,-7.158595,820.059753,915.130005,41.02,810.831055,419.998383,24.878183,0,0,0,0,0,0,0,0,0
2,11352946,0.007,24.557426,1.903126,-5.971876,827.661743,914.289978,41.02,821.95343,433.394592,24.630032,0,0,0,0,0,0,0,0,0
2,11352960,0.007,24.825396,1.654297,-5.799611,840.434692,912.880005,41.040001,832.93042,446.009796,24.808199,0,0,0,0,0,0,0,0,0
2,11352974,0.007,24.32774,0.582422,-6.794923,852.404419,911.559998,41.040001,845.657288,462.487671,24.470577,0,0,0,0,0,0,0,0,0
2,11352988,0.007,24.212896,-0.221484,-7.158595,869.84375,909.640015,41.040001,860.529907,483.741455,24.235947,0,0,0,0,0,0,0,0,0
2,11353002,0.007,24.423443,0.142188,-8.900393,876.391418,908.919983,41.040001,872.603821,497.24765,24.430925,0,0,0,0,0,0,0,0,0
2,11353016,0.007,24.04063,0.180469,-8.211329,874.208862,909.159973,41.040001,877.020569,491.238647,24.155254,0,0,0,0,0,0,0,0,0
2,11353030,0.007,23.983208,1.233204,-6.98633,862.936707,910.400024,41.049999,876.033264,471.885986,23.974224,0,0,0,0,0,0,0,0,0
2,11353044,0.007,23.944927,1.233204,-6.871486,853.131042,911.47998,41.049999,868.488464,436.964508,23.955214,0,0,0,0,0,0,0,0,0
2,11353058,0.007,23.581255,1.194922,-6.297267,847.687866,912.080017,41.049999,863.666748,409.95578,23.614138,0,0,0,0,0,0,0,0,0
2,11353069,0.011,23.389849,0.869532,-6.163282,857.48822,911,41.049999,864.860352,401.875366,23.456535,0,0,0,0,0,0,0,0,0
2,11353082,0.007,22.758207,0.697266,-5.321095,868.390442,909.799988,41.049999,869.328247,400.275726,22.876181,0,0,0,0,0,0,0,0,0
2,11353096,0.007,22.605083,0.792969,-5.148829,877.118042,908.840027,41.049999,874.797241,400.296936,22.629158,0,0,0,0,0,0,0,0,0
2,11353110,0.007,22.222271,0.257031,-5.761329,893.505676,907.039978,41.049999,885.315674,412.899048,22.31455,0,0,0,0,0,0,0,0,0
2,11353124,0.007,21.896879,0.333594,-5.608204,900.888367,906.22998,41.07,894.516479,421.771423,22.002089,0,0,0,0,0,0,0,0,0
2,11353138,0.007,21.705473,-0.164062,-6.105861,914.02594,904.789978,41.07,907.833191,440.49588,21.763956,0,0,0,0,0,0,0,0,0
2,11353152,0.007,21.437504,0.429297,-5.914454,920.600037,904.070007,41.07,916.726685,447.600067,21.522577,0,0,0,0,0,0,0,0,0
2,11353166,0.007,21.226957,1.1375,-6.354689,932.667542,902.75,41.07,926.396545,456.418182,21.253288,0,0,0,0,0,0,0,0,0
2,11353180,0.007,20.557035,1.807422,-7.407423,943.648987,901.549988,41.07,937.784729,469.158356,20.70298,0,0,0,0,0,0,0,0,0
2,11353194,0.007,20.423052,2.03711,-6.909767,950.241577,900.830017,41.07,948.41864,479.51413,20.447947,0,0,0,0,0,0,0,0,0
2,11353208,0.007,19.75313,1.711719,-6.622658,956.474792,900.150024,41.09,957.851196,486.47406,19.922859,0,0,0,0,0,0,0,0,0
2,11353222,0.007,19.293755,1.960547,-5.857032,975.285522,898.099976,41.09,970.59491,501.483521,19.445747,0,0,0,0,0,0,0,0,0
2,11353236,0.007,19.848833,1.73086,-6.201564,982.176636,897.349976,41.07,979.52948,506.535583,19.749077,0,0,0,0,0,0,0,0,0
2,11353250,0.007,19.274614,1.348047,-5.991017,994.038025,896.059998,41.09,990.169617,515.641785,19.436872,0,0,0,0,0,0,0,0,0
2,11353264,0.007,19.044926,1.328907,-6.010158,1008.404358,894.5,41.09,1002.3078,528.169189,19.079815,0,0,0,0,0,0,0,0,0
2,11353278,0.007,19.140629,0.81211,-6.39297,983.003723,897.26001,41.09,1000.736816,505.943695,19.134943,0,0,0,0,0,0,0,0,0
2,11353292,0.007,19.255472,1.099219,-6.814064,950.976135,900.75,41.09,980.249329,437.543274,19.244167,0,0,0,0,0,0,0,0,0
2,11353306,0.007,18.700394,1.175782,-7.426564,961.976135,899.549988,41.09,973.918152,406.798553,18.788399,0,0,0,0,0,0,0,0,0
2,11353320,0.007,18.757816,1.539454,-6.852345,979.695557,897.619995,41.09,979.317627,406.332886,18.748522,0,0,0,0,0,0,0,0,0
2,11353334,0.007,18.56641,1.654297,-6.833205,987.049133,896.820007,41.110001,986.305176,409.809235,18.582586,0,0,0,0,0,0,0,0,0
2,11353348,0.007,18.413284,1.462891,-7.503127,1001.772156,895.219971,41.09,994.840149,417.1091,18.492458,0,0,0,0,0,0,0,0,0
2,11353362,0.007,17.934769,1.367188,-7.579689,1000.664978,895.340027,41.09,1001.469177,419.285767,17.984241,0,0,0,0,0,0,0,0,0
2,11353376,0.007,17.819925,1.080079,-6.622658,1004.718323,894.900024,41.110001,1005.873108,415.886963,17.854488,0,0,0,0,0,0,0,0,0
2,11353390,0.007,17.705082,0.946094,-6.680079,1005.085632,894.859985,41.09,1010.204773,412.348572,17.742281,0,0,0,0,0,0,0,0,0
2,11353401,0.011,17.762505,1.022657,-6.641798,1015.776428,893.700012,41.110001,1015.062805,413.351044,17.756493,0,0,0,0,0,0,0,0,0
2,11353414,0.007,17.628519,1.041797,-6.526955,1019.097839,893.340027,41.110001,1020.360535,413.364441,17.663874,0,0,0,0,0,0,0,0,0
2,11353428,0.007,17.571098,1.022657,-6.871486,1023.526306,892.859985,41.110001,1024.430054,409.34613,17.591309,0,0,0,0,0,0,0,0,0
2,11353442,0.007,17.551956,0.984375,-7.273439,1033.49585,891.780029,41.110001,1029.65271,408.40625,17.539474,0,0,0,0,0,0,0,0,0
2,11353456,0.007,17.532816,1.501172,-7.062892,1030.171875,892.140015,41.110001,1033.248779,403.347046,17.537354,0,0,0,0,0,0,0,0,0
2,11353470,0.007,17.379692,1.635157,-7.216017,1040.151855,891.059998,41.110001,1040.416138,407.33493,17.393692,0,0,0,0,0,0,0,0,0
2,11353484,0.007,17.073441,1.75,-7.369142,1047.917603,890.219971,41.110001,1047.690674,411.454041,17.10187,0,0,0,0,0,0,0,0,0
2,11353498,0.007,16.901175,1.864844,-7.637111,1056.801147,889.26001,41.110001,1054.880981,415.254791,16.919014,0,0,0,0,0,0,0,0,0
2,11353512,0.007,16.403519,2.266798,-7.31172,1056.801147,889.26001,41.110001,1059.272217,411.916321,16.473225,0,0,0,0,0,0,0,0,0
2,11353526,0.007,16.097269,1.998829,-7.062892,1062.35791,888.659973,41.110001,1064.009644,409.562805,16.194639,0,0,0,0,0,0,0,0,0
2,11353540,0.007,15.695316,2.324219,-7.771095,1064.582764,888.419983,41.110001,1067.400879,403.935944,15.787591,0,0,0,0,0,0,0,0,0
2,11353554,0.007,15.8293,2.458204,-8.402736,1069.122314,887.929993,41.110001,1071.030151,399.112488,15.797537,0,0,0,0,0,0,0,0,0
2,11353568,0.007,16.058989,2.132813,-8.708986,1076.911865,887.090027,41.110001,1078.110107,402.997711,16.035797,0,0,0,0,0,0,0,0,0
2,11353582,0.007,15.2168,2.458204,-9.857424,1084.706665,886.25,41.110001,1084.062622,403.984314,15.389538,0,0,0,0,0,0,0,0,0
2,11353596,0.007,15.389066,3.223829,-10.910158,1088.049194,885.890015,41.110001,1089.939453,404.704926,15.389089,0,0,0,0,0,0,0,0,0
2,11353610,0.007,15.235941,3.683204,-11.656643,1091.394409,885.530029,41.110001,1094.970703,403.279205,15.321533,0,0,0,0,0,0,0,0,0
2,11353624,0.007,15.101956,4.008595,-12.651956,1096.969727,884.929993,41.110001,1098.820557,399.014374,15.149417,0,0,0,0,0,0,0,0,0
2,11353638,0.007,15.484769,4.44883,-14.164065,1094.739502,885.169983,41.110001,1101.854126,392.785339,15.426892,0,0,0,0,0,0,0,0,0
2,11353652,0.007,14.872269,4.44883,-15.465629,1112.223755,883.289978,41.119999,1109.30896,397.878326,15.049617,0,0,0,0,0,0,0,0,0
2,11353666,0.007,14.221487,4.429689,-15.580472,1115.949463,882.890015,41.110001,1114.591553,397.383423,14.294964,0,0,0,0,0,0,0,0,0
2,11353680,0.007,14.412893,3.932032,-17.858208,1121.165405,882.330017,41.119999,1121.133057,399.996674,14.346401,0,0,0,0,0,0,0,0,0
2,11353694,0.007,14.374613,3.606642,-19.466021,1124.521118,881.969971,41.119999,1126.987549,400.775574,14.380091,0,0,0,0,0,0,0,0,0
2,11353708,0.007,14.336331,3.491798,-22.069145,1131.232666,881.25,41.119999,1132.245483,400.078491,14.276151,0,0,0,0,0,0,0,0,0
2,11353722,0.007,14.183207,3.644923,-23.696098,1136.829102,880.650024,41.119999,1137.920044,400.434204,14.223464,0,0,0,0,0,0,0,0,0
2,11353736,0.007,14.106644,4.180861,-24.767975,1149.155518,879.330017,41.119999,1145.970947,406.727814,14.117068,0,0,0,0,0,0,0,0,0
2,11353747,0.011,13.475003,4.716798,-26.471491,1149.53064,879.289978,41.110001,1150.161499,406.160187,13.666229,0,0,0,0,0,0,0,0,0
2,11353760,0.007,13.589847,5.023048,-27.179693,1144.671509,879.809998,41.119999,1149.88562,392.50827,13.57249,0,0,0,0,0,0,0,0,0
2,11353774,0.007,13.532425,5.271876,-28.481256,1156.258057,878.570007,41.110001,1156.382324,395.165192,13.535988,0,0,0,0,0,0,0,0,0
2,11353788,0.007,13.053909,4.44883,-29.725397,1164.116333,877.72998,41.110001,1161.174927,393.574158,13.164751,0,0,0,0,0,0,0,0,0
2,11353802,0.007,13.053909,4.14258,-31.084381,1173.943115,876.679993,41.119999,1171.180542,404.90976,13.06382,0,0,0,0,0,0,0,0,0
2,11353816,0.007,12.613674,3.338673,-33.936337,1176.19165,876.440002,41.119999,1174.734619,399.889313,12.753675,0,0,0,0,0,0,0,0,0
2,11353830,0.007,12.709377,3.089844,-34.491413,1176.19165,876.440002,41.119999,1180.777466,401.070679,12.693245,0,0,0,0,0,0,0,0,0
2,11353844,0.007,12.039455,2.802735,-34.548836,1182.940186,875.719971,41.119999,1186.713135,401.954041,12.217503,0,0,0,0,0,0,0,0,0
2,11353858,0.007,12.211721,2.783594,-34.242584,1197.573364,874.159973,41.119999,1194.491211,407.492889,12.176265,0,0,0,0,0,0,0,0,0
2,11353872,0.007,12.441409,3.013282,-34.300007,1197.573364,874.159973,41.119999,1199.003662,404.693726,12.417859,0,0,0,0,0,0,0,0,0
2,11353886,0.007,12.211721,1.845704,-33.936337,1205.463257,873.320007,41.119999,1204.294556,403.957336,12.226014,0,0,0,0,0,0,0,0,0
2,11353900,0.007,12.422268,2.075391,-33.362118,1204.617798,873.409973,41.110001,1209.407959,402.697662,12.404799,0,0,0,0,0,0,0,0,0
2,11353914,0.007,12.077737,1.922266,-31.850006,1212.605469,872.559998,41.110001,1212.079346,395.546295,12.122738,0,0,0,0,0,0,0,0,0
2,11353928,0.007,12.498831,1.769141,-31.448053,1222.387329,871.52002,41.119999,1218.773193,398.644226,12.377455,0,0,0,0,0,0,0,0,0
2,11353942,0.007,12.537112,1.75,-31.773445,1223.893555,871.359985,41.110001,1223.244019,396.088745,12.522944,0,0,0,0,0,0,0,0,0
2,11353956,0.007,12.230862,1.1375,-31.830866,1225.021729,871.23999,41.110001,1227.404053,392.787231,12.264738,0,0,0,0,0,0,0,0,0
2,11353970,0.007,12.326565,1.386328,-31.735163,1225.021729,871.23999,41.110001,1230.570679,387.088623,12.320993,0,0,0,0,0,0,0,0,0
2,11353984,0.007,12.441409,1.252344,-32.405087,1233.685913,870.320007,41.119999,1235.692627,386.488068,12.44271,0,0,0,0,0,0,0,0,0
2,11353998,0.007,12.077737,1.156641,-31.428913,1240.849243,869.559998,41.110001,1241.55896,387.765839,12.186167,0,0,0,0,0,0,0,0,0
2,11354012,0.007,12.575394,1.290625,-30.12735,1239.718384,869.679993,41.110001,1244.233276,381.048065,12.46473,0,0,0,0,0,0,0,0,0
2,11354026,0.007,12.441409,1.711719,-29.763678,1245.37561,869.080017,41.110001,1249.908325,381.972046,12.471451,0,0,0,0,0,0,0,0,0
2,11354040,0.007,12.135159,1.654297,-29.400005,1244.241943,869.200012,41.110001,1252.735596,375.745331,12.16487,0,0,0,0,0,0,0,0,0
2,11354054,0.007,12.001174,0.984375,-29.304302,1254.433472,868.119995,41.110001,1258.168701,376.263519,12.031668,0,0,0,0,0,0,0,0,0
2,11354068,0.007,12.192581,0.792969,-28.63438,1269.172241,866.559998,41.110001,1264.32373,378.71936,12.17837,0,0,0,0,0,0,0,0,0
2,11354079,0.011,12.211721,0.50586,-28.404694,1264.635376,867.039978,41.110001,1267.294067,375.847198,12.201746,0,0,0,0,0,0,0,0,0
2,11354092,0.007,11.828909,0.180469,-28.538677,1269.172241,866.559998,41.110001,1271.165039,373.450073,11.881966,0,0,0,0,0,0,0,0,0
2,11354106,0.007,12.020315,0.046485,-28.28985,1277.117798,865.719971,41.110001,1277.592896,376.57019,12.008049,0,0,0,0,0,0,0,0,0
2,11354120,0.007,11.86719,0.008203,-27.830475,1290.749512,864.280029,41.110001,1285.129028,382.436249,11.919802,0,0,0,0,0,0,0,0,0
2,11354134,0.007,12.001174,0.180469,-27.792194,1289.613281,864.400024,41.110001,1289.122803,379.251038,11.965926,0,0,0,0,0,0,0,0,0
2,11354148,0.007,11.828909,0.19961,-27.08399,1296.435791,863.679993,41.110001,1292.933472,375.780762,11.873112,0,0,0,0,0,0,0,0,0
2,11354162,0.007,11.809768,-0.240625,-26.816021,1297.952393,863.52002,41.09,1296.90686,372.783508,11.819388,0,0,0,0,0,0,0,0,0
2,11354176,0.007,11.618361,-0.546875,-26.337505,1303.644043,862.919983,41.09,1301.265991,370.864777,11.636212,0,0,0,0,0,0,0,0,0
2,11354190,0.007,11.637503,-0.872266,-25.55274,1310.096558,862.23999,41.110001,1305.970459,369.900757,11.617414,0,0,0,0,0,0,0,0,0
2,11354204,0.007,11.752346,-0.872266,-25.131645,1309.338135,862.320007,41.09,1309.517212,366.029907,11.740357,0,0,0,0,0,0,0,0,0
2,11354218,0.007,11.503518,-1.350781,-23.830084,1320.354004,861.159973,41.110001,1315.817993,369.181152,11.548609,0,0,0,0,0,0,0,0,0
2,11354232,0.007,11.637503,-1.274219,-23.810942,1317.312744,861.47998,41.09,1320.35498,367.722137,11.601556,0,0,0,0,0,0,0,0,0
2,11354246,0.007,11.484378,-1.044531,-23.925787,1324.156372,860.76001,41.09,1326.512573,370.326691,11.494757,0,0,0,0,0,0,0,0,0
2,11354260,0.007,11.484378,-1.523047,-23.351568,1325.295166,860.640015,41.09,1329.875732,365.897278,11.493235,0,0,0,0,0,0,0,0,0
2,11354274,0.007,11.599221,-1.676172,-22.892193,1332.144043,859.919983,41.09,1335.541626,367.333466,11.589787,0,0,0,0,0,0,0,0,0
2,11354288,0.007,11.197268,-2.460938,-21.28438,1337.854126,859.320007,41.09,1339.169556,363.720947,11.312118,0,0,0,0,0,0,0,0,0
2,11354302,0.007,11.27383,-3.016016,-20.844145,1341.28125,858.960022,41.09,1343.242798,361.320587,11.261183,0,0,0,0,0,0,0,0,0
2,11354316,0.007,11.56094,-3.13086,-20.958988,1346.996582,858.359985,41.09,1346.421387,356.850433,11.534335,0,0,0,0,0,0,0,0,0
2,11354330,0.007,11.599221,-3.073438,-20.193363,1346.996582,858.359985,41.09,1350.87207,355.588226,11.58541,0,0,0,0,0,0,0,0,0
2,11354344,0.007,11.637503,-3.226563,-19.198051,1359.579224,857.039978,41.09,1356.119873,356.482147,11.632923,0,0,0,0,0,0,0,0,0
2,11354358,0.007,11.503518,-2.920313,-19.025785,1359.579224,857.039978,41.09,1358.603271,350.466248,11.514983,0,0,0,0,0,0,0,0,0
2,11354372,0.007,11.369534,-3.111719,-18.54727,1361.867554,856.799988,41.09,1362.679077,348.553986,11.382419,0,0,0,0,0,0,0,0,0
2,11354386,0.007,11.828909,-2.82461,-17.513676,1364.158447,856.559998,41.09,1367.293091,348.000305,11.721212,0,0,0,0,0,0,0,0,0
2,11354400,0.007,11.809768,-3.016016,-17.130863,1360.723389,856.919983,41.09,1368.898804,339.936676,11.805789,0,0,0,0,0,0,0,0,0
2,11354411,0.011,11.426955,-3.456251,-16.614065,1381.351929,854.76001,41.09,1375.342529,346.85675,11.539885,0,0,0,0,0,0,0,0,0
2,11354424,0.007,11.044143,-4.451563,-13.934378,1380.2052,854.880005,41.09,1379.818237,346.918793,11.092128,0,0,0,0,0,0,0,0,0
2,11354438,0.007,11.197268,-4.566407,-13.455862,1384.792236,854.400024,41.09,1384.517334,346.688049,11.155919,0,0,0,0,0,0,0,0,0
2,11354452,0.007,11.407815,-4.470704,-13.264456,1391.680786,853.679993,41.09,1390.619995,349.95282,11.381491,0,0,0,0,0,0,0,0,0
2,11354466,0.007,11.197268,-4.719532,-13.130471,1390.914551,853.76001,41.07,1392.871826,343.529999,11.257594,0,0,0,0,0,0,0,0,0
2,11354480,0.007,11.082424,-4.910938,-11.675784,1394.360107,853.400024,41.07,1395.868042,339.173584,11.097928,0,0,0,0,0,0,0,0,0
2,11354494,0.007,11.312112,-4.317579,-11.044143,1395.509521,853.280029,41.07,1398.6875,334.503296,11.253026,0,0,0,0,0,0,0,0,0
2,11354508,0.007,11.139846,-4.068751,-11.005861,1403.55542,852.440002,41.07,1402.727051,333.082825,11.149889,0,0,0,0,0,0,0,0,0
2,11354522,0.007,11.331252,-4.33672,-9.378908,1411.223389,851.640015,41.09,1407.251709,332.972473,11.227141,0,0,0,0,0,0,0,0,0
2,11354536,0.007,11.312112,-3.685938,-9.876565,1408.153076,851.960022,41.07,1410.435913,329.435272,11.308536,0,0,0,0,0,0,0,0,0
2,11354550,0.007,11.484378,-3.628516,-7.541408,1411.606567,851.599976,41.07,1415.488037,330.60376,11.416701,0,0,0,0,0,0,0,0,0
2,11354564,0.007,11.178127,-3.207422,-7.082033,1420.815063,850.640015,41.07,1418.733521,327.383698,11.263348,0,0,0,0,0,0,0,0,0
2,11354578,0.007,10.891018,-3.092579,-6.354689,1423.119141,850.400024,41.07,1422.458008,325.422638,10.924047,0,0,0,0,0,0,0,0,0
2,11354592,0.007,11.120706,-3.035157,-5.47422,1427.727295,849.919983,41.07,1426.319336,323.889496,11.103269,0,0,0,0,0,0,0,0,0
2,11354606,0.007,11.120706,-3.283985,-4.957423,1431.183472,849.559998,41.07,1430.518677,323.228333,11.119163,0,0,0,0,0,0,0,0,0
2,11354620,0.007,10.737893,-2.575782,-4.57461,1439.258423,848.719971,41.07,1438.265259,331.349274,10.78377,0,0,0,0,0,0,0,0,0
2,11354634,0.007,10.718752,-2.460938,-4.421485,1443.874512,848.23999,41.07,1443.168457,332.163269,10.728534,0,0,0,0,0,0,0,0,0
2,11354648,0.007,10.795315,-2.097266,-3.311329,1435.796997,849.080017,41.07,1443.736084,322.069733,10.689186,0,0,0,0,0,0,0,0,0
2,11354662,0.007,10.795315,-0.987109,-3.445313,1451.957397,847.400024,41.07,1449.691406,325.835602,10.78594,0,0,0,0,0,0,0,0,0
2,11354676,0.007,10.680471,-1.00625,-2.985938,1451.957397,847.400024,41.07,1452.28064,321.103882,10.689804,0,0,0,0,0,0,0,0,0
2,11354690,0.007,10.718752,-0.221484,-3.081641,1453.112061,847.280029,41.07,1456.841919,321.343262,10.764178,0,0,0,0,0,0,0,0,0
2,11354704,0.007,10.871878,-0.049219,-3.02422,1463.514893,846.200012,41.07,1461.909668,322.929199,10.830324,0,0,0,0,0,0,0,0,0
2,11354718,0.007,10.623049,0.620703,-2.622266,1462.360229,846.320007,41.07,1464.018188,317.08551,10.693432,0,0,0,0,0,0,0,0,0
2,11354732,0.007,10.776175,0.907813,-2.239454,1466.215332,845.919983,41.049999,1469.941895,320.826752,10.736784,0,0,0,0,0,0,0,0,0
2,11354746,0.007,10.527346,1.271485,-2.947657,1473.930908,845.119995,41.07,1472.893311,317.186584,10.545921,0,0,0,0,0,0,0,0,0
2,11354757,0.011,10.489065,1.462891,-2.239454,1471.616211,845.359985,41.07,1474.903687,313.584076,10.505947,0,0,0,0,0,0,0,0,0
2,11354770,0.007,10.508205,1.922266,-2.526563,1484.357544,844.039978,41.07,1480.78479,318.244629,10.504061,0,0,0,0,0,0,0,0,0
2,11354784,0.007,10.335939,1.845704,-2.086329,1490.1521,843.440002,41.07,1485.123291,318.195038,10.350909,0,0,0,0,0,0,0,0,0
2,11354798,0.007,10.450784,2.458204,-3.02422,1492.85791,843.159973,41.049999,1489.439453,318.065491,10.473984,0,0,0,0,0,0,0,0,0
2,11354812,0.007,10.297659,2.113672,-2.794532,1493.63208,843.080017,41.07,1492.725098,315.340759,10.313299,0,0,0,0,0,0,0,0,0
2,11354826,0.007,10.584768,2.917579,-2.794532,1492.85791,843.159973,41.049999,1496.371094,313.522003,10.580653,0,0,0,0,0,0,0,0,0
2,11354840,0.007,10.201955,2.936719,-3.139063,1499.43457,842.47998,41.07,1500.032959,311.853973,10.315595,0,0,0,0,0,0,0,0,0
2,11354854,0.007,10.182815,2.975001,-3.177344,1500.594604,842.359985,41.07,1503.392456,309.452423,10.198555,0,0,0,0,0,0,0,0,0
2,11354868,0.007,10.335939,3.032423,-2.909376,1507.657471,841.630005,41.07,1509.680298,314.384827,10.291726,0,0,0,0,0,0,0,0,0
2,11354882,0.007,10.412502,3.166407,-2.947657,1510.273438,841.359985,41.049999,1513.815796,313.803528,10.401746,0,0,0,0,0,0,0,0,0
2,11354896,0.007,10.144533,3.281251,-3.119923,1521.609009,840.190002,41.07,1520.483521,319.582214,10.207417,0,0,0,0,0,0,0,0,0
2,11354910,0.007,10.010549,3.300391,-2.851954,1523.934204,839.950012,41.07,1524.398438,318.328308,10.028002,0,0,0,0,0,0,0,0,0
2,11354924,0.007,10.125393,3.759766,-2.966798,1528.589966,839.469971,41.07,1527.42688,314.962982,10.096737,0,0,0,0,0,0,0,0,0
2,11354938,0.007,10.182815,3.319532,-2.717969,1537.032227,838.599976,41.049999,1532.778931,317.514374,10.163227,0,0,0,0,0,0,0,0,0
2,11354952,0.007,9.914845,3.300391,-3.34961,1544.901001,837.789978,41.07,1539.732178,323.944214,9.940967,0,0,0,0,0,0,0,0,0
2,11354966,0.007,10.067971,3.032423,-4.344923,1541.693237,838.119995,41.049999,1543.402466,321.912811,10.024652,0,0,0,0,0,0,0,0,0
2,11354980,0.007,9.876565,2.936719,-4.038673,1553.06311,836.950012,41.07,1548.075317,322.555145,9.88976,0,0,0,0,0,0,0,0,0
2,11354994,0.007,9.991408,3.166407,-4.478907,1552.191162,837.039978,41.049999,1552.61792,322.749115,9.930348,0,0,0,0,0,0,0,0,0
2,11355008,0.007,10.02969,2.898438,-4.364063,1557.734741,836.469971,41.07,1556.991577,322.544586,10.020884,0,0,0,0,0,0,0,0,0
2,11355022,0.007,9.819142,2.687891,-4.995704,1559.193359,836.320007,41.049999,1562.303589,324.584534,9.845018,0,0,0,0,0,0,0,0,0
2,11355036,0.007,9.895705,2.726172,-4.478907,1562.403687,835.98999,41.07,1564.296997,318.383728,9.87515,0,0,0,0,0,0,0,0,0
2,11355050,0.007,9.800002,2.515626,-4.402345,1568.539185,835.359985,41.049999,1568.363037,317.555786,9.826681,0,0,0,0,0,0,0,0,0
2,11355064,0.007,9.704299,2.687891,-4.766016,1576.722412,834.52002,41.049999,1572.560059,317.156219,9.735214,0,0,0,0,0,0,0,0,0
2,11355078,0.007,9.780862,2.726172,-4.612892,1582.57251,833.919983,41.049999,1578.134644,320.17926,9.776874,0,0,0,0,0,0,0,0,0
2,11355089,0.011,9.666018,2.34336,-3.579298,1582.57251,833.919983,41.049999,1581.941162,320.999084,9.699045,0,0,0,0,0,0,0,0,0
2,11355102,0.007,9.723439,2.266798,-4.976563,1590.766357,833.080017,41.049999,1587.531372,324.685028,9.669288,0,0,0,0,0,0,0,0,0
2,11355116,0.007,9.838284,2.171094,-4.746876,1587.254761,833.440002,41.049999,1589.261108,317.827972,9.82324,0,0,0,0,0,0,0,0,0
2,11355130,0.007,9.627736,1.271485,-4.632032,1595.551636,832.590027,41.049999,1594.125854,319.013367,9.681127,0,0,0,0,0,0,0,0,0
2,11355144,0.007,9.685159,1.405469,-4.919142,1588.425293,833.320007,41.049999,1595.772217,312.038147,9.672681,0,0,0,0,0,0,0,0,0
2,11355158,0.007,9.589456,1.194922,-4.306642,1606.102417,831.51001,41.049999,1603.255127,319.918823,9.648941,0,0,0,0,0,0,0,0,0
2,11355172,0.007,9.589456,1.11836,-4.536329,1599.068604,832.22998,41.049999,1604.667358,312.367035,9.594638,0,0,0,0,0,0,0,0,0
2,11355186,0.007,9.761721,1.367188,-4.210938,1603.758667,831.75,41.049999,1606.216919,305.481079,9.746841,0,0,0,0,0,0,0,0,0
2,11355200,0.007,9.723439,0.850391,-4.593751,1614.317383,830.669983,41.049999,1612.97937,311.779541,9.71755,0,0,0,0,0,0,0,0,0
2,11355214,0.007,9.914845,1.003516,-5.148829,1613.144165,830.789978,41.049999,1616.11377,308.820221,9.897297,0,0,0,0,0,0,0,0,0
2,11355228,0.007,9.168362,0.735547,-3.158204,1624.889282,829.590027,41.049999,1622.236328,313.440277,9.341154,0,0,0,0,0,0,0,0,0
2,11355242,0.007,9.302345,1.022657,-2.794532,1624.889282,829.590027,41.049999,1626.69873,313.7146,9.277748,0,0,0,0,0,0,0,0,0
2,11355256,0.007,9.474611,0.792969,-2.851954,1623.716064,829.710022,41.049999,1627.930542,305.959747,9.477082,0,0,0,0,0,0,0,0,0
2,11355270,0.007,9.455471,1.290625,-3.139063,1634.296021,828.630005,41.049999,1632.500244,306.831543,9.461414,0,0,0,0,0,0,0,0,0
2,11355284,0.007,9.723439,1.11836,-3.215626,1627.240967,829.349976,41.049999,1633.498779,298.701569,9.70009,0,0,0,0,0,0,0,0,0
2,11355298,0.007,9.225783,0.563281,-2.583985,1640.473755,828,41.040001,1639.291016,302.829315,9.371966,0,0,0,0,0,0,0,0,0
2,11355312,0.007,9.455471,0.869532,-3.273048,1636.650269,828.390015,41.049999,1640.359253,295.055054,9.447989,0,0,0,0,0,0,0,0,0
2,11355326,0.007,9.493752,0.620703,-2.583985,1644.889038,827.549988,41.049999,1644.63855,295.560028,9.553744,0,0,0,0,0,0,0,0,0
2,11355340,0.007,9.359768,0.658985,-2.909376,1650.778809,826.950012,41.049999,1651.56897,302.569672,9.405017,0,0,0,0,0,0,0,0,0
2,11355354,0.007,9.225783,0.391016,-2.316016,1656.673828,826.349976,41.049999,1656.468994,304.339935,9.26571,0,0,0,0,0,0,0,0,0
2,11355368,0.007,9.321486,0.850391,-2.851954,1666.109497,825.390015,41.049999,1663.264282,310.783295,9.296582,0,0,0,0,0,0,0,0,0
2,11355382,0.007,9.359768,0.81211,-2.794532,1672.305786,824.76001,41.040001,1669.474609,315.559906,9.354214,0,0,0,0,0,0,0,0,0
2,11355396,0.007,9.398049,0.792969,-2.220313,1660.505127,825.960022,41.040001,1668.78186,302.906433,9.410027,0,0,0,0,0,0,0,0,0
2,11355410,0.007,9.474611,1.003516,-2.679688,1667.290649,825.27002,41.049999,1670.971802,297.900085,9.46882,0,0,0,0,0,0,0,0,0
2,11355424,0.007,9.225783,1.175782,-2.545704,1673.486816,824.640015,41.040001,1673.437134,293.817352,9.323382,0,0,0,0,0,0,0,0,0
2,11355435,0.011,9.321486,1.539454,-3.081641,1681.757324,823.799988,41.040001,1678.248535,297.887878,9.322107,0,0,0,0,0,0,0,0,0
2,11355448,0.007,9.398049,1.635157,-2.679688,1679.39502,824.039978,41.040001,1682.616333,299.167938,9.37527,0,0,0,0,0,0,0,0,0
2,11355462,0.007,9.340627,1.501172,-1.8375,1680.576172,823.919983,41.040001,1684.486938,293.495544,9.343632,0,0,0,0,0,0,0,0,0
2,11355476,0.007,9.340627,1.558594,-2.086329,1690.035645,822.960022,41.040001,1688.773682,294.087646,9.340909,0,0,0,0,0,0,0,0,0
2,11355490,0.007,9.359768,1.42461,-2.354297,1699.207153,822.030029,41.049999,1695.70874,301.244507,9.358163,0,0,0,0,0,0,0,0,0
2,11355504,0.007,9.14922,1.635157,-1.914063,1701.968384,821.75,41.040001,1699.63855,300.705109,9.203806,0,0,0,0,0,0,0,0,0
2,11355518,0.007,8.976955,1.711719,-1.741797,1709.078857,821.030029,41.040001,1705.779419,305.66037,8.997136,0,0,0,0,0,0,0,0,0
2,11355532,0.007,9.264065,1.75,-2.162891,1707.892456,821.150024,41.040001,1709.962646,305.511566,9.228352,0,0,0,0,0,0,0,0,0
2,11355546,0.007,9.110939,1.788282,-2.258594,1710.262695,820.909973,41.040001,1713.638672,304.086639,9.153335,0,0,0,0,0,0,0,0,0
2,11355560,0.007,9.378908,1.807422,-1.990625,1718.564819,820.070007,41.040001,1718.713379,306.231506,9.306866,0,0,0,0,0,0,0,0,0
2,11355574,0.007,9.302345,1.864844,-2.679688,1722.124023,819.710022,41.040001,1723.005249,306.353821,9.318748,0,0,0,0,0,0,0,0,0
2,11355588,0.007,9.034377,1.520313,-2.488282,1726.872314,819.22998,41.040001,1726.504761,304.533142,9.0596,0,0,0,0,0,0,0,0,0
2,11355602,0.007,9.340627,1.539454,-2.12461,1728.058716,819.109985,41.040001,1731.095947,305.410767,9.243613,0,0,0,0,0,0,0,0,0
2,11355616,0.007,9.455471,1.788282,-2.583985,1733.998657,818.51001,41.040001,1732.849487,299.335785,9.436664,0,0,0,0,0,0,0,0,0
2,11355630,0.007,8.632423,0.965235,-2.545704,1738.752197,818.030029,41.040001,1739.177734,304.721985,8.771836,0,0,0,0,0,0,0,0,0
2,11355644,0.007,8.919533,1.080079,-2.335157,1742.319336,817.669983,41.040001,1743.056152,303.87149,8.846374,0,0,0,0,0,0,0,0,0
2,11355658,0.007,8.938674,0.984375,-2.488282,1749.456177,816.950012,41.040001,1748.454102,306.840454,8.958529,0,0,0,0,0,0,0,0,0
2,11355672,0.007,9.206642,1.041797,-2.220313,1748.56311,817.039978,41.02,1750.942749,302.457062,9.128545,0,0,0,0,0,0,0,0,0
2,11355686,0.007,9.110939,1.367188,-2.392579,1756.894287,816.200012,41.02,1755.249756,302.79361,9.11252,0,0,0,0,0,0,0,0,0
2,11355700,0.007,9.034377,0.754688,-2.028907,1756.894287,816.200012,41.02,1757.803345,298.735107,9.005256,0,0,0,0,0,0,0,0,0
2,11355714,0.007,8.862111,0.946094,-1.971485,1764.9375,815.390015,41.040001,1764.519531,305.122314,8.874841,0,0,0,0,0,0,0,0,0
2,11355728,0.007,8.613283,0.391016,-2.105469,1762.852783,815.599976,41.02,1765.342041,296.671539,8.644428,0,0,0,0,0,0,0,0,0
2,11355742,0.007,8.555861,0.486719,-1.933204,1771.197144,814.76001,41.02,1770.586792,299.496399,8.575746,0,0,0,0,0,0,0,0,0
2,11355756,0.007,9.015236,0.907813,-1.722657,1773.580566,814.52002,41.02,1774.344238,298.530853,8.916191,0,0,0,0,0,0,0,0,0
2,11355767,0.011,9.187502,1.041797,-2.277735,1787.907227,813.080017,41.02,1780.818359,306.649414,9.106806,0,0,0,0,0,0,0,0,0
2,11355780,0.007,8.938674,0.946094,-1.263281,1780.741211,813.799988,41.02,1782.606934,301.299988,9.005584,0,0,0,0,0,0,0,0,0
2,11355794,0.007,8.555861,0.907813,0.038281,1785.515869,813.320007,41.02,1785.033936,296.999329,8.595744,0,0,0,0,0,0,0,0,0
2,11355808,0.007,8.938674,1.041797,-0.957031,1797.467163,812.119995,41.02,1791.933594,304.003754,8.884325,0,0,0,0,0,0,0,0,0
2,11355822,0.007,8.766408,1.003516,-0.995313,1792.68457,812.599976,41.02,1794.021606,298.742523,8.776831,0,0,0,0,0,0,0,0,0
2,11355836,0.007,8.708986,0.792969,-1.263281,1799.858398,811.880005,41.02,1797.017212,295.987396,8.747047,0,0,0,0,0,0,0,0,0
2,11355850,0.007,8.613283,0.83125,-0.30625,1798.661499,812,41.02,1801.074219,295.843964,8.645136,0,0,0,0,0,0,0,0,0
2,11355864,0.007,8.881252,0.984375,-1.358985,1805.840698,811.280029,41.02,1804.694702,294.701355,8.824287,0,0,0,0,0,0,0,0,0
2,11355878,0.007,8.785549,0.984375,-1.301563,1814.219482,810.440002,41.02,1810.644409,299.397217,8.809059,0,0,0,0,0,0,0,0,0
2,11355892,0.007,8.594143,1.060938,-1.473828,1808.234619,811.039978,41.02,1812.067261,292.600525,8.613137,0,0,0,0,0,0,0,0,0
2,11355906,0.007,8.555861,1.11836,-1.8375,1815.817993,810.280029,41,1815.558228,291.227142,8.556936,0,0,0,0,0,0,0,0,0
2,11355920,0.007,8.555861,1.175782,-1.167578,1820.611206,809.799988,41,1819.98584,292.222534,8.555967,0,0,0,0,0,0,0,0,0
2,11355934,0.007,8.53672,1.11836,-1.282422,1829.003174,808.960022,41,1825.81897,296.70401,8.534478,0,0,0,0,0,0,0,0,0
2,11355948,0.007,8.670705,1.175782,-1.091016,1835.003906,808.359985,41,1831.449585,300.539917,8.630654,0,0,0,0,0,0,0,0,0
2,11355962,0.007,8.689846,1.44375,-0.631641,1833.801636,808.47998,41,1835.397827,299.988525,8.69258,0,0,0,0,0,0,0,0,0
2,11355976,0.007,8.632423,1.520313,-0.555078,1844.608765,807.400024,41,1840.87146,303.32605,8.649824,0,0,0,0,0,0,0,0,0
2,11355990,0.007,8.49844,1.462891,-0.516797,1841.004639,807.76001,41,1843.408569,299.172699,8.511825,0,0,0,0,0,0,0,0,0
2,11356004,0.007,8.708986,1.539454,-0.535938,1844.608765,807.400024,41,1845.690674,294.564545,8.691463,0,0,0,0,0,0,0,0,0
2,11356018,0.007,8.51758,1.558594,-0.861328,1844.910034,807.369995,40.990002,1847.608398,289.178528,8.532952,0,0,0,0,0,0,0,0,0
2,11356032,0.007,8.268752,1.194922,-0.689063,1855.727661,806.289978,40.990002,1854.182495,295.559357,8.332262,0,0,0,0,0,0,0,0,0
2,11356046,0.007,8.230471,1.194922,-1.167578,1856.628662,806.200012,41,1857.616211,293.913422,8.247488,0,0,0,0,0,0,0,0,0
2,11356060,0.007,8.402736,1.271485,-0.30625,1866.558472,805.210022,40.990002,1862.632202,296.33078,8.344985,0,0,0,0,0,0,0,0,0
2,11356074,0.007,8.632423,1.003516,-0.631641,1860.238037,805.840027,41,1864.629639,291.050812,8.558818,0,0,0,0,0,0,0,0,0
2,11356088,0.007,8.460158,0.850391,-1.014453,1869.869385,804.880005,41,1869.763916,293.785034,8.468923,0,0,0,0,0,0,0,0,0
2,11356099,0.011,8.460158,1.003516,-1.378125,1874.990112,804.369995,40.990002,1873.614868,295.433258,8.46279,0,0,0,0,0,0,0,0,0
2,11356112,0.007,8.192189,1.099219,-1.51211,1877.399902,804.130005,40.990002,1876.827271,293.997284,8.268232,0,0,0,0,0,0,0,0,0
2,11356126,0.007,8.077346,0.869532,-0.880469,1883.427124,803.530029,40.990002,1881.128052,294.608063,8.094307,0,0,0,0,0,0,0,0,0
2,11356140,0.007,8.402736,0.792969,-0.823047,1887.047119,803.169983,40.990002,1886.124756,296.896515,8.339368,0,0,0,0,0,0,0,0,0
2,11356154,0.007,8.555861,1.271485,-0.421094,1887.047119,803.169983,40.990002,1888.501099,292.589478,8.504598,0,0,0,0,0,0,0,0,0
2,11356168,0.007,8.632423,1.42461,-1.378125,1890.666992,802.809998,40.990002,1890.973145,288.690552,8.58904,0,0,0,0,0,0,0,0,0
2,11356182,0.007,8.613283,1.271485,-1.435547,1893.179932,802.559998,40.990002,1893.939209,286.137756,8.615116,0,0,0,0,0,0,0,0,0
2,11356196,0.007,8.153908,1.041797,-1.110157,1898.01001,802.080017,40.990002,1898.678955,288.04538,8.194822,0,0,0,0,0,0,0,0,0
2,11356210,0.007,8.096486,1.060938,-1.263281,1901.635254,801.719971,40.990002,1902.845825,288.463867,8.113203,0,0,0,0,0,0,0,0,0
2,11356224,0.007,8.115626,1.060938,-0.784766,1902.842896,801.599976,40.990002,1906.77002,288.216003,8.115366,0,0,0,0,0,0,0,0,0
2,11356238,0.007,8.039064,1.003516,-0.574219,1907.678345,801.119995,40.990002,1909.856689,285.943176,8.097837,0,0,0,0,0,0,0,0,0
2,11356252,0.007,7.885939,0.658985,-0.631641,1913.723877,800.52002,40.990002,1912.907715,283.715576,7.93676,0,0,0,0,0,0,0,0,0
2,11356266,0.007,8.326174,0.888672,-0.459375,1917.354492,800.159973,40.990002,1915.98291,281.642334,8.227588,0,0,0,0,0,0,0,0,0
2,11356280,0.007,8.307033,0.678125,-0.172266,1922.499023,799.650024,40.970001,1920.923584,284.251953,8.304016,0,0,0,0,0,0,0,0,0
2,11356294,0.007,8.096486,0.50586,-0.363672,1928.555298,799.049988,40.970001,1925.418945,285.697021,8.114937,0,0,0,0,0,0,0,0,0
2,11356308,0.007,8.326174,0.965235,-0.957031,1927.342407,799.169983,40.970001,1929.220581,285.286072,8.2914,0,0,0,0,0,0,0,0,0
2,11356322,0.007,8.192189,0.888672,-0.363672,1935.826904,798.330017,40.970001,1933.446045,286.016937,8.22904,0,0,0,0,0,0,0,0,0
2,11356336,0.007,8.307033,1.060938,-0.669922,1939.465454,797.969971,40.970001,1938.951172,289.846802,8.256103,0,0,0,0,0,0,0,0,0
2,11356350,0.007,8.211329,0.984375,-0.535938,1936.130737,798.299988,40.950001,1941.073364,285.082916,8.235241,0,0,0,0,0,0,0,0,0
2,11356364,0.007,8.077346,1.099219,0.019141,1940.678223,797.849976,40.970001,1945.032715,285.028778,8.091304,0,0,0,0,0,0,0,0,0
2,11356378,0.007,7.962502,1.194922,-0.210547,1949.170654,797.01001,40.970001,1949.271973,285.751526,8.021964,0,0,0,0,0,0,0,0,0
2,11356392,0.007,8.039064,1.175782,-0.172266,1952.814453,796.650024,40.970001,1953.004028,285.195526,8.037542,0,0,0,0,0,0,0,0,0
2,11356406,0.007,8.039064,0.965235,-0.287109,1956.45813,796.289978,40.970001,1956.354126,283.721649,8.062942,0,0,0,0,0,0,0,0,0
2,11356420,0.007,8.058205,1.214063,-0.803906,1965.270264,795.419983,40.950001,1961.186401,286.036438,8.054677,0,0,0,0,0,0,0,0,0
2,11356434,0.007,7.847658,1.099219,-0.038281,1965.270264,795.419983,40.950001,1964.875244,285.372192,7.906054,0,0,0,0,0,0,0,0,0
2,11356445,0.011,7.828517,0.984375,-0.516797,1970.134766,794.940002,40.950001,1968.672607,287.111511,7.851635,0,0,0,0,0,0,0,0,0
2,11356458,0.007,8.039064,1.003516,-1.091016,1976.220093,794.340027,40.950001,1973.002686,288.753235,7.978447,0,0,0,0,0,0,0,0,0
2,11356472,0.007,8.019923,1.1375,-0.59336,1968.919312,795.059998,40.950001,1974.519165,282.515137,8.000143,0,0,0,0,0,0,0,0,0
2,11356486,0.007,8.019923,1.060938,-0.689063,1983.526123,793.619995,40.950001,1981.573486,290.317841,8.018223,0,0,0,0,0,0,0,0,0
2,11356500,0.007,7.809377,0.658985,-0.133984,1983.526123,793.619995,40.950001,1984.700439,288.084869,7.827881,0,0,0,0,0,0,0,0,0
2,11356514,0.007,7.885939,0.639844,-0.535938,1983.526123,793.619995,40.950001,1986.157959,281.779755,7.860718,0,0,0,0,0,0,0,0,0
2,11356528,0.007,7.962502,0.716407,-0.89961,1993.276245,792.659973,40.950001,1991.943604,286.462341,7.953506,0,0,0,0,0,0,0,0,0
2,11356542,0.007,8.115626,1.080079,-0.650781,1999.781616,792.02002,40.93,1995.669067,285.950592,8.085276,0,0,0,0,0,0,0,0,0
2,11356556,0.007,7.924221,1.11836,-0.057422,2002.223145,791.780029,40.93,2001.123901,289.665985,7.978565,0,0,0,0,0,0,0,0,0
2,11356570,0.007,7.847658,1.175782,0.363672,2007.106201,791.299988,40.93,2005.309692,290.1315,7.899322,0,0,0,0,0,0,0,0,0
2,11356584,0.007,7.713674,0.926953,0.076563,2005.885376,791.419983,40.93,2007.973145,286.742767,7.758125,0,0,0,0,0,0,0,0,0
2,11356598,0.007,7.637111,0.735547,-0.421094,2014.129395,790.609985,40.950001,2011.229126,285.030121,7.647871,0,0,0,0,0,0,0,0,0
2,11356612,0.007,7.866798,0.754688,-1.033594,2014.435913,790.580017,40.93,2012.846802,279.30954,7.811344,0,0,0,0,0,0,0,0,0
2,11356626,0.007,7.828517,0.926953,-0.708203,2019.324341,790.099976,40.93,2019.072144,285.139679,7.827021,0,0,0,0,0,0,0,0,0
2,11356640,0.007,7.828517,0.467578,0.440234,2020.547729,789.97998,40.93,2021.371582,281.052277,7.860381,0,0,0,0,0,0,0,0,0
2,11356654,0.007,7.847658,0.448438,0.133984,2021.771118,789.859985,40.93,2023.601929,276.914337,7.844746,0,0,0,0,0,0,0,0,0
2,11356668,0.007,7.59883,0.429297,0.440234,2026.661987,789.380005,40.93,2026.205078,273.881531,7.656663,0,0,0,0,0,0,0,0,100
2,11356682,0.007,7.943361,0.429297,0.689063,2029.415161,789.109985,40.919998,2030.328125,274.685486,7.845868,0,0,0,0,0,0,0,0,100
2,11356696,0.007,7.866798,0.754688,0.344531,2170.028809,775.419983,40.919998,2084.730957,401.327026,7.866421,0,0,0,0,0,0,0,0,100
2,11356710,0.007,8.287892,0.180469,-0.325391,2549.621826,739.419983,40.919998,2271.689453,854.746338,8.179439,0,0,0,0,0,0,0,0,100
2,11356724,0.007,8.862111,0.333594,-0.382813,2860.340088,710.969971,40.919998,2561.210938,1546.224487,8.807773,0,0,0,0,0,0,0,0,100
2,11356738,0.007,10.852736,0.448438,0.344531,2986.101318,699.710022,40.93,2792.894775,2068.905029,10.459503,0,0,0,0,0,0,0,0,100
2,11356752,0.007,11.848049,0.448438,1.148438,3050.050781,694.039978,40.919998,2938.14624,2358.462158,11.519173,0,0,0,0,0,0,0,0,100
2,11356766,0.007,13.9918,0.448438,1.071875,3054.125244,693.679993,40.919998,3019.68457,2479.171387,13.529158,0,0,0,0,0,0,0,0,100
2,11356777,0.011,14.833987,0.620703,0.631641,3052.764404,693.799988,40.919998,3048.759277,2483.868896,14.445415,0,0,0,0,0,0,0,0,100
2,11356790,0.007,15.101956,1.11836,-0.421094,3029.702148,695.840027,40.919998,3069.854248,2455.630615,14.987106,0,0,0,0,0,0,0,0,100
2,11356804,0.007,15.350784,1.041797,0,3018.868652,696.799988,40.919998,3062.60083,2352.166504,15.317601,0,0,0,0,0,0,0,0,100
2,11356818,0.007,16.001566,0.467578,-0.823047,3075.884766,691.76001,40.919998,3087.92749,2333.374512,15.884636,0,0,0,0,0,0,0,0,100
2,11356832,0.007,16.097269,0.754688,-0.555078,3079.969727,691.400024,40.919998,3097.957275,2277.335205,16.077971,0,0,0,0,0,0,0,0,100
2,11356846,0.007,15.197659,0.754688,-0.267969,3062.276855,692.960022,40.919998,3096.743408,2195.123291,15.327063,0,0,0,0,0,0,0,0,100
2,11356860,0.007,14.92969,0.410157,-0.631641,3059.560547,693.200012,40.919998,3098.28833,2122.484131,15.020247,0,0,0,0,0,0,0,0,100
2,11356874,0.007,15.140238,1.596875,0.095703,3057.182373,693.409973,40.900002,3092.654541,2034.694092,15.080795,0,0,0,0,0,0,0,0,100
2,11356888,0.007,14.91055,1.520313,-0.153125,3027.332031,696.049988,40.900002,3074.40625,1918.555786,14.972677,0,0,0,0,0,0,0,0,100
2,11356902,0.007,14.987113,1.520313,-0.363672,3044.62085,694.52002,40.919998,3082.345947,1871.295288,14.985213,0,0,0,0,0,0,0,0,100
2,11356916,0.007,14.89141,0.946094,1.416407,3070.779785,692.210022,40.900002,3096.498047,1841.247559,14.967368,0,0,0,0,0,0,0,0,100
2,11356930,0.007,14.642581,0.926953,0.516797,3051.74707,693.890015,40.900002,3090.203613,1761.483521,14.67063,0,0,0,0,0,0,0,0,100
2,11356944,0.007,15.121097,1.367188,0.114844,3102.47168,689.419983,40.880001,3106.476074,1740.896973,15.016956,0,0,0,0,0,0,0,0,100
2,11356958,0.007,15.52305,0.888672,0.172266,3091.212891,690.409973,40.900002,3111.977783,1694.097412,15.393664,0,0,0,0,0,0,0,0,100
2,11356972,0.007,14.795707,1.175782,0.497656,3081.671387,691.25,40.900002,3112.419678,1636.211914,14.916217,0,0,0,0,0,0,0,0,100
2,11356986,0.007,14.833987,0.83125,0.210547,3083.375732,691.099976,40.880001,3114.24707,1583.75,14.832712,0,0,0,0,0,0,0,0,100
2,11357000,0.007,14.757425,0.486719,0.114844,3087.463379,690.73999,40.880001,3106.458984,1509.585205,14.763581,0,0,0,0,0,0,0,0,100
2,11357014,0.007,14.27891,0.352735,-0.631641,3065.904785,692.640015,40.860001,3102.605713,1447.347534,14.349256,0,0,0,0,0,0,0,0,100
2,11357028,0.007,15.025393,0.678125,0.057422,3069.987061,692.280029,40.860001,3096.802734,1382.658813,14.964843,0,0,0,0,0,0,0,0,100
2,11357042,0.007,14.795707,0.50586,0.019141,3080.651367,691.340027,40.880001,3089.748779,1317.456787,14.918415,0,0,0,0,0,0,0,0,100
2,11357056,0.007,14.89141,0.295313,0.076563,3083.716553,691.070007,40.860001,3100.171143,1297.526733,14.873524,0,0,0,0,0,0,0,0,100
2,11357070,0.007,14.27891,0.237891,0.019141,3106.908203,689.030029,40.860001,3108.561279,1273.547241,14.419604,0,0,0,0,0,0,0,0,100
2,11357084,0.007,14.125784,0.103906,-0.287109,3056.389648,693.47998,40.860001,3098.428711,1203.858643,14.183112,0,0,0,0,0,0,0,0,100
2,11357098,0.007,14.412893,0.257031,0.248828,3085.080078,690.950012,40.860001,3106.517334,1181.991577,14.392178,0,0,0,0,0,0,0,0,100
2,11357109,0.011,14.489456,1.11836,0.784766,3082.353027,691.190002,40.860001,3107.986328,1153.163574,14.460075,0,0,0,0,0,0,0,0,100
2,11357122,0.007,14.29805,0.792969,0.038281,3074.183105,691.909973,40.860001,3106.689209,1112.480469,14.291876,0,0,0,0,0,0,0,0,100
2,11357136,0.007,14.546878,1.041797,0.459375,3030.605957,695.76001,40.860001,3085.04541,1019.696899,14.523261,0,0,0,0,0,0,0,0,100
2,11357150,0.007,14.432034,0.639844,-1.301563,3091.894531,690.349976,40.860001,3100.819336,1023.423706,14.516099,0,0,0,0,0,0,0,0,100
2,11357164,0.007,14.259768,0.658985,-0.937891,3098.944336,689.72998,40.849998,3107.210205,1003.855286,14.318359,0,0,0,0,0,0,0,0,100
2,11357178,0.007,14.29805,0.965235,1.052735,3092.121826,690.330017,40.849998,3110.376953,976.808105,14.339563,0,0,0,0,0,0,0,0,100
2,11357192,0.007,14.259768,0.869532,0.89961,3079.856201,691.409973,40.849998,3106.061279,932.057739,14.274373,0,0,0,0,0,0,0,0,100
2,11357206,0.007,14.374613,0.888672,-0.019141,3085.304688,690.929993,40.849998,3105.351562,897.88446,14.365354,0,0,0,0,0,0,0,0,100
2,11357220,0.007,13.915237,1.003516,0.708203,3123.541504,687.570007,40.849998,3114.525391,889.862976,14.015278,0,0,0,0,0,0,0,0,100
2,11357234,0.007,13.666409,0.754688,0.957031,3085.304688,690.929993,40.849998,3109.597656,846.633789,13.696906,0,0,0,0,0,0,0,0,100
2,11357248,0.007,14.508596,1.022657,0.650781,3063.864746,692.820007,40.830002,3100.341309,793.986328,14.29586,0,0,0,0,0,0,0,0,100
2,11357262,0.007,14.125784,0.180469,0.708203,3081.557861,691.26001,40.830002,3099.549805,764.423157,14.220606,0,0,0,0,0,0,0,0,100
2,11357276,0.007,13.762113,0.467578,0.957031,3106.110107,689.099976,40.830002,3108.338379,759.836548,13.714677,0,0,0,0,0,0,0,0,100
2,11357290,0.007,14.202347,0.391016,0.631641,3123.882568,687.539978,40.830002,3114.102539,748.187378,14.067077,0,0,0,0,0,0,0,0,100
2,11357304,0.007,13.934378,-0.030078,0.535938,3116.019043,688.22998,40.810001,3128.282227,757.289429,13.946051,0,0,0,0,0,0,0,0,100
2,11357318,0.007,13.896097,-0.0875,0.133984,3105.087646,689.190002,40.810001,3114.990723,698.272217,13.840127,0,0,0,0,0,0,0,0,100
2,11357332,0.007,13.896097,-0.0875,0.172266,3084.625488,690.98999,40.810001,3104.929199,649.072937,13.890699,0,0,0,0,0,0,0,0,100
2,11357346,0.007,13.876956,0.429297,-0.421094,3133.807129,686.669983,40.810001,3112.595947,646.170654,13.858384,0,0,0,0,0,0,0,0,100
2,11357360,0.007,13.934378,0.525,0.248828,3087.349854,690.75,40.810001,3108.083252,612.46991,13.915255,0,0,0,0,0,0,0,0,100
2,11357374,0.007,14.259768,1.156641,0.440234,3088.713135,690.630005,40.810001,3110.866211,597.929993,14.17686,0,0,0,0,0,0,0,0,100
2,11357388,0.007,14.202347,0.486719,0.363672,3144.77002,685.710022,40.810001,3130.128174,625.311096,14.212372,0,0,0,0,0,0,0,0,100
2,11357402,0.007,13.551565,0.888672,0.765625,3141.001953,686.039978,40.790001,3136.407715,619.470154,13.610212,0,0,0,0,0,0,0,0,100
2,11357416,0.007,13.360159,0.773828,0.057422,3100.991943,689.549988,40.810001,3132.649414,588.333069,13.413881,0,0,0,0,0,0,0,0,100
2,11357430,0.007,13.608987,0.869532,0.325391,3172.577881,683.280029,40.790001,3144.491455,597.975708,13.592031,0,0,0,0,0,0,0,0,100
2,11357444,0.007,13.972659,0.907813,0.172266,3105.428467,689.159973,40.790001,3124.267578,527.179749,13.97041,0,0,0,0,0,0,0,0,100
2,11357455,0.011,13.494143,1.194922,0.076563,3120.804199,687.809998,40.779999,3127.192627,520.102051,13.635896,0,0,0,0,0,0,0,0,100
2,11357468,0.007,13.264456,1.175782,0.6125,3151.9729,685.080017,40.790001,3145.160156,548.080444,13.345634,0,0,0,0,0,0,0,0,100
2,11357482,0.007,13.321877,0.754688,1.225,3138.259277,686.280029,40.790001,3141.799072,520.945374,13.40389,0,0,0,0,0,0,0,0,100
2,11357496,0.007,13.283597,0.639844,0.019141,3105.428467,689.159973,40.790001,3140.928467,500.270325,13.301791,0,0,0,0,0,0,0,0,100
2,11357510,0.007,13.723831,0.429297,0.019141,3109.867676,688.77002,40.779999,3125.322266,444.318909,13.685985,0,0,0,0,0,0,0,0,100
2,11357524,0.007,13.341019,1.060938,0.708203,3092.121826,690.330017,40.779999,3113.185303,398.749268,13.379201,0,0,0,0,0,0,0,0,100
2,11357538,0.007,13.475003,1.233204,0.6125,3134.491455,686.609985,40.779999,3129.172607,424.737518,13.466672,0,0,0,0,0,0,0,0,100
2,11357552,0.007,13.647268,0.601563,0.248828,3141.343018,686.01001,40.779999,3136.071045,427.380798,13.607299,0,0,0,0,0,0,0,0,100
2,11357566,0.007,13.608987,0.754688,0.114844,3152.316406,685.049988,40.779999,3148.425049,443.378571,13.616953,0,0,0,0,0,0,0,0,100
2,11357580,0.007,12.843362,0.754688,0.459375,3134.491455,686.609985,40.779999,3141.392822,410.718842,12.983827,0,0,0,0,0,0,0,0,100
2,11357594,0.007,12.80508,1.003516,0.057422,3171.890869,683.340027,40.759998,3156.651123,434.675812,12.829212,0,0,0,0,0,0,0,0,100
2,11357608,0.007,12.977346,0.946094,0.497656,3203.56958,680.580017,40.759998,3172.681885,460.02243,12.964655,0,0,0,0,0,0,0,0,100
2,11357622,0.007,12.977346,0.773828,0.497656,3149.914551,685.26001,40.759998,3170.983154,439.687927,12.979903,0,0,0,0,0,0,0,0,100
2,11357636,0.007,13.130471,0.582422,-0.30625,3160.895996,684.299988,40.759998,3168.0354,417.24704,13.11694,0,0,0,0,0,0,0,0,100
2,11357650,0.007,13.207034,0.525,-0.765625,3110.552002,688.710022,40.740002,3142.782227,340.003601,13.222377,0,0,0,0,0,0,0,0,100
2,11357664,0.007,13.034768,0.639844,-0.076563,3140.658447,686.070007,40.740002,3146.740234,338.08374,13.087361,0,0,0,0,0,0,0,0,100
2,11357678,0.007,12.80508,0.83125,-0.6125,3146.141357,685.590027,40.740002,3146.188965,325.207642,12.8741,0,0,0,0,0,0,0,0,100
2,11357692,0.007,13.130471,0.563281,-0.038281,3177.39209,682.859985,40.759998,3164.788574,360.326904,13.039965,0,0,0,0,0,0,0,0,100
2,11357706,0.007,13.130471,0.19961,1.014453,3176.361572,682.950012,40.740002,3168.145996,356.502289,13.122517,0,0,0,0,0,0,0,0,100
2,11357720,0.007,13.168753,1.022657,0.382813,3136.547119,686.429993,40.740002,3151.450195,302.829407,13.128234,0,0,0,0,0,0,0,0,100
2,11357734,0.007,12.977346,1.462891,-0.363672,3154.374756,684.869995,40.740002,3169.25415,336.216736,12.990705,0,0,0,0,0,0,0,0,100
2,11357748,0.007,13.149612,0.448438,0.478516,3131.06958,686.909973,40.740002,3158.393555,297.41394,13.087012,0,0,0,0,0,0,0,0,100
2,11357762,0.007,13.015628,0.065625,-0.095703,3172.577881,683.280029,40.720001,3170.026367,316.090851,13.050087,0,0,0,0,0,0,0,0,100
2,11357776,0.007,12.651956,0.869532,-0.095703,3159.865479,684.390015,40.740002,3167.60498,299.203094,12.743158,0,0,0,0,0,0,0,0,100
2,11357787,0.011,12.230862,0.850391,-0.076563,3165.705078,683.880005,40.720001,3169.285645,295.286682,12.383389,0,0,0,0,0,0,0,0,100
2,11357800,0.007,12.077737,0.391016,0.210547,3176.705078,682.919983,40.720001,3160.537842,264.66983,12.136927,0,0,0,0,0,0,0,0,100
2,11357814,0.007,12.211721,0.467578,0.727344,3164.331055,684,40.720001,3168.287598,274.750153,12.205084,0,0,0,0,0,0,0,0,100
2,11357828,0.007,12.671097,0.965235,0.535938,3154.718262,684.840027,40.720001,3166.646973,261.143188,12.641574,0,0,0,0,0,0,0,0,100
2,11357842,0.007,12.460549,0.333594,0.229688,3162.957031,684.119995,40.720001,3168.318359,256.307556,12.476527,0,0,0,0,0,0,0,0,100
2,11357856,0.007,12.80508,0.735547,-0.133984,3160.55249,684.330017,40.709999,3161.820068,231.548767,12.735786,0,0,0,0,0,0,0,0,100
2,11357870,0.007,12.728518,0.544141,0.59336,3168.453125,683.640015,40.720001,3163.990723,229.166946,12.745214,0,0,0,0,0,0,0,0,100
2,11357884,0.007,12.728518,1.099219,0.478516,3183.929199,682.289978,40.709999,3176.085449,251.442352,12.718171,0,0,0,0,0,0,0,0,100
2,11357898,0.007,12.498831,1.175782,-0.057422,3163.300537,684.090027,40.709999,3166.89502,220.152374,12.566153,0,0,0,0,0,0,0,0,100
2,11357912,0.007,12.709377,0.869532,0.669922,3155.061768,684.809998,40.709999,3166.625977,211.82576,12.696507,0,0,0,0,0,0,0,0,100
2,11357926,0.007,12.843362,0.735547,0.823047,3166.048584,683.849976,40.709999,3172.23877,218.420639,12.818283,0,0,0,0,0,0,0,0,100
2,11357940,0.007,12.958206,0.50586,0.650781,3155.402588,684.780029,40.689999,3161.465332,184.320831,12.945582,0,0,0,0,0,0,0,0,100
2,11357954,0.007,11.982034,0.486719,0.229688,3184.272705,682.26001,40.689999,3178.535645,220.380844,12.147784,0,0,0,0,0,0,0,0,100
2,11357968,0.007,12.192581,0.716407,-0.229688,3200.811035,680.820007,40.689999,3190.516113,242.717606,12.144782,0,0,0,0,0,0,0,0,100
2,11357982,0.007,12.116018,0.19961,1.20586,3204.835205,680.469971,40.689999,3192.278564,239.090988,12.142712,0,0,0,0,0,0,0,0,100
2,11357996,0.007,12.326565,0.276172,0.172266,3163.644043,684.059998,40.689999,3177.007324,193.015717,12.265881,0,0,0,0,0,0,0,0,100
2,11358010,0.007,12.479691,0.371875,0.172266,3211.737061,679.869995,40.689999,3191.537842,222.797119,12.461072,0,0,0,0,0,0,0,0,100
2,11358024,0.007,12.116018,0.658985,0.803906,3195.523682,681.280029,40.669998,3190.307861,212.324234,12.19868,0,0,0,0,0,0,0,0,100
2,11358038,0.007,12.288284,0.084766,0.153125,3193.917236,681.419983,40.689999,3190.991943,206.899185,12.280344,0,0,0,0,0,0,0,0,100
2,11358052,0.007,12.077737,0.850391,-0.765625,3133.807129,686.669983,40.669998,3177.067383,164.675003,12.13508,0,0,0,0,0,0,0,0,100
2,11358066,0.007,12.288284,0.620703,-0.555078,3174.871338,683.080017,40.669998,3179.345459,164.688522,12.23061,0,0,0,0,0,0,0,0,100
2,11358080,0.007,11.924612,1.214063,-0.59336,3188.635254,681.880005,40.669998,3188.593506,181.999725,12.015877,0,0,0,0,0,0,0,0,100
2,11358094,0.007,12.001174,1.060938,0.497656,3192.767822,681.52002,40.669998,3194.080322,189.396835,11.986482,0,0,0,0,0,0,0,0,100
2,11358108,0.007,12.364846,1.080079,0.689063,3199.661621,680.919983,40.669998,3194.443115,184.01976,12.331316,0,0,0,0,0,0,0,0,100
2,11358122,0.007,11.943752,0.601563,-0.191406,3146.371338,685.570007,40.66,3181.633057,145.492065,12.013606,0,0,0,0,0,0,0,0,100
2,11358133,0.011,11.982034,0.448438,-0.535938,3207.937256,680.200012,40.669998,3190.900146,164.890411,11.991708,0,0,0,0,0,0,0,0,100
2,11358146,0.007,12.020315,1.11836,-0.019141,3180.71875,682.570007,40.66,3180.800049,134.803833,12.01765,0,0,0,0,0,0,0,0,100
2,11358160,0.007,12.269143,0.582422,-0.172266,3157.350098,684.609985,40.66,3176.401367,119.078522,12.258563,0,0,0,0,0,0,0,0,100
2,11358174,0.007,12.116018,0.83125,-0.095703,3215.187744,679.570007,40.66,3188.549316,145.651688,12.161095,0,0,0,0,0,0,0,0,0
2,11358188,0.007,11.675784,0.735547,0.382813,3193.114014,681.48999,40.66,3197.554199,162.926819,11.74688,0,0,0,0,0,0,0,0,100
2,11358202,0.007,11.771487,0.850391,0.440234,3183.472168,682.330017,40.66,3189.718994,137.981934,11.749115,0,0,0,0,0,0,0,0,100
2,11358216,0.007,11.5418,0.429297,0.803906,3233.50708,677.97998,40.639999,3207.571533,177.967377,11.560646,0,0,0,0,0,0,0,0,100
2,11358230,0.007,11.962893,0.21875,-0.210547,3232.122559,678.099976,40.639999,3221.985107,207.776459,11.871406,0,0,0,0,0,0,0,0,100
2,11358244,0.007,11.809768,0.448438,-0.6125,3200.351318,680.859985,40.639999,3214.278564,181.448425,11.81497,0,0,0,0,0,0,0,0,100
2,11358258,0.007,11.771487,0.391016,0.344531,3183.815674,682.299988,40.639999,3196.969727,132.32988,11.75898,0,0,0,0,0,0,0,0,100
2,11358272,0.007,11.637503,-0.068359,0.555078,3182.438965,682.419983,40.639999,3191.87207,115.140068,11.676122,0,0,0,0,0,0,0,0,100
2,11358286,0.007,11.714065,0.601563,-0.344531,3218.641357,679.27002,40.619999,3203.939209,141.409912,11.658934,0,0,0,0,0,0,0,0,100
2,11358300,0.007,11.675784,0.314453,0.153125,3207.59375,680.22998,40.619999,3208.522949,147.983917,11.682311,0,0,0,0,0,0,0,0,100
2,11358314,0.007,11.426955,0.180469,0.076563,3210.35498,679.98999,40.619999,3203.490479,130.727753,11.449612,0,0,0,0,0,0,0,0,100
2,11358328,0.007,11.178127,0.065625,0,3211.737061,679.869995,40.619999,3205.003174,130.228699,11.226301,0,0,0,0,0,0,0,0,100
2,11358342,0.007,11.216409,0.544141,-0.440234,3185.535645,682.150024,40.619999,3201.78833,117.622513,11.217052,0,0,0,0,0,0,0,0,100
2,11358356,0.007,11.484378,0.850391,1.071875,3249.088867,676.630005,40.619999,3221.395508,162.681107,11.417127,0,0,0,0,0,0,0,0,100
2,11358370,0.007,11.752346,0.735547,1.225,3229.702148,678.309998,40.619999,3226.202393,169.159073,11.666633,0,0,0,0,0,0,0,0,100
2,11358384,0.007,11.714065,0.907813,-0.133984,3230.04834,678.280029,40.599998,3222.616455,154.763245,11.769923,0,0,0,0,0,0,0,0,100
2,11358398,0.007,11.407815,0.697266,-0.401953,3185.881836,682.119995,40.599998,3206.275146,108.810852,11.503565,0,0,0,0,0,0,0,0,100
2,11358412,0.007,11.27383,0.678125,0.401953,3231.432861,678.159973,40.599998,3220.446777,140.417252,11.294464,0,0,0,0,0,0,0,0,100
2,11358426,0.007,11.522658,1.1375,0.019141,3221.751465,679,40.599998,3218.969238,132.126556,11.466384,0,0,0,0,0,0,0,0,100
2,11358440,0.007,11.331252,0.869532,0.6125,3183.125977,682.359985,40.599998,3213.141846,112.734329,11.342824,0,0,0,0,0,0,0,0,100
2,11358454,0.007,11.350393,1.309766,0.057422,3254.981201,676.119995,40.599998,3222.080811,131.713287,11.338159,0,0,0,0,0,0,0,0,0
2,11358465,0.011,11.312112,1.214063,0.765625,3231.432861,678.159973,40.599998,3225.982666,138.001083,11.319956,0,0,0,0,0,0,0,0,100
2,11358478,0.007,11.5418,1.156641,0.784766,3209.319336,680.080017,40.599998,3221.248535,121.792656,11.473883,0,0,0,0,0,0,0,0,100
2,11358492,0.007,11.158987,1.041797,0.555078,3206.904053,680.289978,40.59,3218.875732,111.639893,11.230778,0,0,0,0,0,0,0,0,100
2,11358506,0.007,11.044143,0.792969,0.459375,3229.009766,678.369995,40.59,3226.040039,125.683784,11.084808,0,0,0,0,0,0,0,0,100
2,11358520,0.007,10.852736,0.582422,0.210547,3242.853027,677.169983,40.59,3242.892334,163.105927,10.873479,0,0,0,0,0,0,0,0,100
2,11358534,0.007,11.446096,0.237891,0.076563,3256.7146,675.969971,40.59,3248.801758,172.377151,11.367404,0,0,0,0,0,0,0,0,100
2,11358548,0.007,11.350393,0.371875,0.401953,3256.7146,675.969971,40.59,3248.72583,166.542297,11.351967,0,0,0,0,0,0,0,0,100
2,11358562,0.007,11.484378,0.21875,-0.497656,3218.295166,679.299988,40.57,3240.037354,139.05983,11.496291,0,0,0,0,0,0,0,0,100
2,11358576,0.007,11.101564,-0.144922,-0.038281,3229.355957,678.340027,40.57,3235.527588,123.145622,11.216504,0,0,0,0,0,0,0,0,100
2,11358590,0.007,10.94844,-0.202344,-0.057422,3223.822998,678.820007,40.57,3235.775391,119.416,11.016103,0,0,0,0,0,0,0,0,100
2,11358604,0.007,10.891018,0.142188,-0.191406,3215.877441,679.51001,40.549999,3223.157471,84.130447,10.913894,0,0,0,0,0,0,0,0,0
2,11358618,0.007,11.005861,0.237891,-0.229688,3224.05542,678.799988,40.549999,3226.375,89.274757,10.997698,0,0,0,0,0,0,0,0,0
2,11358632,0.007,10.64219,0.103906,-0.191406,3226.589355,678.580017,40.57,3225.408203,83.968033,10.705742,0,0,0,0,0,0,0,0,0
2,11358646,0.007,10.814455,0.352735,0.401953,3202.073975,680.710022,40.549999,3213.092773,50.582634,10.804548,0,0,0,0,0,0,0,0,0
2,11358660,0.007,11.044143,0.544141,-0.229688,3246.200684,676.880005,40.549999,3226.768555,83.143646,11.015234,0,0,0,0,0,0,0,0,0
2,11358674,0.007,10.871878,0.142188,0.133984,3242.044434,677.23999,40.549999,3236.719482,105.099205,10.920772,0,0,0,0,0,0,0,0,0
2,11358688,0.007,10.182815,0.620703,0.095703,3237.890625,677.599976,40.549999,3234.226807,95.516769,10.304321,0,0,0,0,0,0,0,0,0
2,11358702,0.007,9.895705,0.792969,-0.363672,3186.912354,682.030029,40.549999,3221.42041,60.04554,9.991465,0,0,0,0,0,0,0,0,0
2,11358716,0.007,9.532033,0.448438,-0.038281,3151.515869,685.119995,40.529999,3193.675781,-11.25132,9.572021,0,0,0,0,0,0,0,0,0
2,11358730,0.007,8.938674,0.965235,0.325391,3085.872803,690.880005,40.529999,3149.75293,-120.469269,9.077752,0,0,0,0,0,0,0,0,0
2,11358744,0.007,8.173049,0.716407,0.401953,2992.287109,699.159973,40.529999,3077.700195,-295.823364,8.251621,0,0,0,0,0,0,0,0,0
2,11358758,0.007,7.101173,0.486719,0.363672,2846.367432,712.22998,40.529999,2969.987793,-553.944885,7.332871,0,0,0,0,0,0,0,0,0
2,11358772,0.007,6.584376,0.295313,0.172266,2712.103271,724.429993,40.52,2843.836914,-848.843994,6.756155,0,0,0,0,0,0,0,0,0
2,11358786,0.007,6.163282,0.352735,-0.440234,2638.929688,731.150024,40.52,2735.819824,-1088.085938,6.253827,0,0,0,0,0,0,0,0,0
2,11358797,0.011,5.818751,0.486719,-0.153125,2609.034424,733.909973,40.52,2688.220215,-1177.572144,5.94708,0,0,0,0,0,0,0,0,0
2,11358810,0.007,5.684767,0.371875,0.038281,2596.171631,735.099976,40.52,2631.15332,-1281.318604,5.735234,0,0,0,0,0,0,0,0,0
2,11358824,0.007,5.608204,0.237891,0.133984,2585.80835,736.059998,40.52,2598.480469,-1317.88147,5.619179,0,0,0,0,0,0,0,0,0
2,11358838,0.007,5.321095,0.21875,0.248828,2589.692627,735.700012,40.52,2583.124268,-1310.040649,5.359653,0,0,0,0,0,0,0,0,0
2,11358852,0.007,5.378517,0.161328,0.89961,2590.987305,735.580017,40.52,2576.061768,-1281.821411,5.377127,0,0,0,0,0,0,0,0,0
2,11358866,0.007,5.397657,0.371875,0.267969,2588.397949,735.820007,40.52,2570.744873,-1250.213257,5.37615,0,0,0,0,0,0,0,0,0
2,11358880,0.007,5.397657,0.257031,0.191406,2594.876953,735.219971,40.52,2573.041992,-1200.810547,5.396199,0,0,0,0,0,0,0,0,0
2,11358894,0.007,5.359376,0.352735,-0.153125,2593.904541,735.309998,40.5,2574.578613,-1155.044678,5.35104,0,0,0,0,0,0,0,0,0
2,11358908,0.007,5.455079,0.467578,0.019141,2597.79126,734.950012,40.5,2577.376465,-1107.723145,5.42626,0,0,0,0,0,0,0,0,0
2,11358922,0.007,5.493361,0.486719,-0.191406,2601.680908,734.590027,40.5,2580.641113,-1060.870972,5.487838,0,0,0,0,0,0,0,0,0
2,11358936,0.007,5.301954,0.429297,-0.650781,2601.680908,734.590027,40.5,2583.409668,-1016.922485,5.338846,0,0,0,0,0,0,0,0,0
2,11358950,0.007,5.129689,0.295313,-0.248828,2604.275635,734.349976,40.5,2585.878662,-975.234497,5.148622,0,0,0,0,0,0,0,0,0
2,11358964,0.007,5.206251,0.50586,0.153125,2609.465088,733.869995,40.5,2590.406006,-929.888916,5.181526,0,0,0,0,0,0,0,0,0
2,11358978,0.007,5.244533,0.563281,-0.133984,2609.465088,733.869995,40.5,2593.194092,-890.459778,5.231283,0,0,0,0,0,0,0,0,0
2,11358992,0.007,5.397657,0.658985,-0.172266,2616.282227,733.23999,40.48,2598.430908,-846.31366,5.36727,0,0,0,0,0,0,0,0,0
2,11359006,0.007,5.378517,0.620703,-0.133984,2617.148926,733.159973,40.5,2601.718018,-808.556885,5.381851,0,0,0,0,0,0,0,0,0
2,11359020,0.007,5.435939,0.697266,-0.382813,2619.746338,732.919983,40.5,2603.816406,-775.030579,5.431458,0,0,0,0,0,0,0,0,0
2,11359034,0.007,5.321095,0.639844,1.225,2621.046387,732.799988,40.5,2607.274658,-739.348999,5.355206,0,0,0,0,0,0,0,0,0
2,11359048,0.007,5.148829,0.601563,1.071875,2625.377197,732.400024,40.48,2610.82373,-704.66571,5.167444,0,0,0,0,0,0,0,0,0
2,11359062,0.007,5.244533,0.352735,0.765625,2627.979736,732.159973,40.48,2614.155273,-671.731323,5.217971,0,0,0,0,0,0,0,0,0
2,11359076,0.007,5.321095,0.486719,0.803906,2634.374268,731.570007,40.48,2617.696045,-639.360413,5.296256,0,0,0,0,0,0,0,0,0
2,11359090,0.007,5.397657,0.257031,0.650781,2636.976807,731.330017,40.48,2622.11377,-605.977295,5.39297,0,0,0,0,0,0,0,0,0
2,11359104,0.007,5.206251,0.065625,0.91875,2640.012939,731.049988,40.459999,2626.54541,-573.744202,5.263129,0,0,0,0,0,0,0,0,0
2,11359118,0.007,4.957423,-0.240625,1.014453,2639.57959,731.090027,40.48,2628.19751,-549.538147,4.98477,0,0,0,0,0,0,0,0,0
2,11359132,0.007,5.263673,0.103906,1.110157,2640.882324,730.969971,40.48,2629.862061,-526.138428,5.187113,0,0,0,0,0,0,0,0,0
2,11359143,0.011,5.244533,0.027344,0.803906,2644.790283,730.609985,40.48,2630.503418,-509.923889,5.227657,0,0,0,0,0,0,0,0,0
2,11359156,0.007,5.072267,0.008203,1.167578,2649.023193,730.219971,40.459999,2635.243896,-481.510651,5.086324,0,0,0,0,0,0,0,0,0
2,11359170,0.007,5.225392,-0.202344,0.746485,2650.328613,730.099976,40.459999,2639.011475,-455.264099,5.177264,0,0,0,0,0,0,0,0,0
2,11359184,0.007,5.244533,-0.183203,0.631641,2656.519531,729.530029,40.48,2643.775635,-427.434845,5.23482,0,0,0,0,0,0,0,0,0
2,11359198,0.007,5.18711,0.046485,0.172266,2656.847168,729.5,40.459999,2646.635986,-405.321472,5.17954,0,0,0,0,0,0,0,0,0
2,11359212,0.007,5.206251,0.161328,-0.095703,2659.455078,729.26001,40.459999,2650.32373,-381.949127,5.200078,0,0,0,0,0,0,0,0,0
2,11359226,0.007,5.16797,0.333594,-0.191406,2665.979004,728.659973,40.459999,2654.349365,-358.502655,5.171045,0,0,0,0,0,0,0,0,0
2,11359240,0.007,5.321095,0.295313,0.421094,2668.264648,728.450012,40.48,2658.570312,-335.418335,5.307988,0,0,0,0,0,0,0,0,0
2,11359254,0.007,5.282814,0.391016,0.497656,2671.202881,728.179993,40.459999,2661.377197,-316.623871,5.285234,0,0,0,0,0,0,0,0,0
2,11359268,0.007,5.16797,0.448438,0.535938,2673.816162,727.940002,40.459999,2664.234863,-298.360748,5.202573,0,0,0,0,0,0,0,0,0
2,11359282,0.007,5.321095,0.697266,0.421094,2673.816162,727.940002,40.459999,2666.869385,-281.329041,5.278706,0,0,0,0,0,0,0,0,0
2,11359296,0.007,5.16797,0.620703,0.076563,2680.3479,727.340027,40.459999,2670.847412,-261.521057,5.201999,0,0,0,0,0,0,0,0,0
2,11359310,0.007,5.244533,0.888672,-0.153125,2685.579834,726.859985,40.459999,2675.078369,-241.752869,5.224947,0,0,0,0,0,0,0,0,0
2,11359324,0.007,5.225392,0.946094,-0.133984,2685.579834,726.859985,40.459999,2679.22876,-222.947372,5.225502,0,0,0,0,0,0,0,0,0
2,11359338,0.007,5.072267,0.792969,0.555078,2684.271729,726.97998,40.459999,2681.290527,-210.019547,5.105962,0,0,0,0,0,0,0,0,0
2,11359352,0.007,5.091407,0.907813,0.478516,2692.12207,726.26001,40.459999,2684.448486,-194.738678,5.092847,0,0,0,0,0,0,0,0,0
2,11359366,0.007,5.244533,0.926953,0.363672,2692.12207,726.26001,40.459999,2687.488281,-180.333435,5.231188,0,0,0,0,0,0,0,0,0
2,11359380,0.007,5.18711,0.792969,0.287109,2696.378906,725.869995,40.450001,2690.64624,-166.11499,5.203153,0,0,0,0,0,0,0,0,0
2,11359394,0.007,5.014845,0.525,0.210547,2693.757812,726.109985,40.450001,2691.723389,-157.602264,5.063632,0,0,0,0,0,0,0,0,0
2,11359408,0.007,5.014845,0.448438,0.401953,2702.926514,725.27002,40.450001,2695.788086,-141.906357,5.019318,0,0,0,0,0,0,0,0,0
2,11359422,0.007,5.053126,0.429297,0.765625,2705.547852,725.030029,40.450001,2699.503418,-127.635689,5.050253,0,0,0,0,0,0,0,0,0
2,11359436,0.007,5.033986,0.123047,0.267969,2708.171631,724.789978,40.450001,2702.757812,-115.01033,5.027535,0,0,0,0,0,0,0,0,0
2,11359450,0.007,5.014845,0.21875,0.325391,2714.727295,724.190002,40.450001,2707.001953,-100.331642,5.016118,0,0,0,0,0,0,0,0,0
2,11359464,0.007,5.014845,0.295313,0.095703,2713.416504,724.309998,40.450001,2710.145508,-88.965446,5.015041,0,0,0,0,0,0,0,0,0
2,11359475,0.011,5.148829,0.448438,0.076563,2714.727295,724.190002,40.450001,2710.892822,-84.57193,5.109042,0,0,0,0,0,0,0,0,0
2,11359488,0.007,5.129689,0.525,-0.30625,2716.040527,724.070007,40.450001,2712.749268,-77.141052,5.131927,0,0,0,0,0,0,0,0,0
2,11359502,0.007,5.053126,0.371875,0.095703,2722.601318,723.469971,40.450001,2716.539307,-64.926521,5.048226,0,0,0,0,0,0,0,0,0
2,11359516,0.007,5.014845,0.467578,0.019141,2726.871338,723.080017,40.43,2719.752197,-54.538231,5.025934,0,0,0,0,0,0,0,0,0
2,11359530,0.007,4.938282,0.563281,-0.019141,2730.811035,722.719971,40.43,2723.93335,-42.123985,4.946187,0,0,0,0,0,0,0,0,0
2,11359544,0.007,5.014845,0.525,0.095703,2730.811035,722.719971,40.43,2727.437988,-31.876333,4.996825,0,0,0,0,0,0,0,0,0
2,11359558,0.007,5.014845,0.467578,-0.669922,2735.741455,722.27002,40.450001,2731.349854,-20.95838,5.01334,0,0,0,0,0,0,0,0,0
2,11359572,0.007,5.110548,0.352735,-0.401953,2737.38501,722.119995,40.43,2734.367188,-12.652112,5.09799,0,0,0,0,0,0,0,0,0
2,11359586,0.007,4.88086,0.333594,-0.133984,2743.961914,721.52002,40.43,2737.899414,-3.305322,4.948264,0,0,0,0,0,0,0,0,0
2,11359600,0.007,4.727736,0.19961,-0.287109,2747.909424,721.159973,40.43,2741.654785,6.270606,4.755414,0,0,0,0,0,0,0,0,0
2,11359614,0.007,4.651173,0.257031,-0.248828,2746.593506,721.280029,40.43,2743.167725,9.922045,4.676485,0,0,0,0,0,0,0,0,0
2,11359628,0.007,4.766016,0.410157,-0.133984,2747.909424,721.159973,40.43,2746.039307,16.774939,4.758123,0,0,0,0,0,0,0,0,0
2,11359642,0.007,4.957423,0.448438,-0.267969,2746.593506,721.280029,40.43,2746.827148,18.206341,4.935743,0,0,0,0,0,0,0,0,0
2,11359656,0.007,4.976563,0.295313,0.421094,2753.178223,720.679993,40.43,2750.616211,27.054005,4.973007,0,0,0,0,0,0,0,0,0
2,11359670,0.007,4.957423,0.257031,0,2757.128418,720.320007,40.43,2753.989014,34.578636,4.962874,0,0,0,0,0,0,0,0,0
2,11359684,0.007,4.995704,0.257031,0.057422,2765.039551,719.599976,40.43,2759.244141,46.545094,4.9849,0,0,0,0,0,0,0,0,0
2,11359698,0.007,4.900001,0.237891,-0.076563,2765.039551,719.599976,40.43,2762.396484,52.84005,4.927603,0,0,0,0,0,0,0,0,0
2,11359712,0.007,4.785157,0.237891,-0.229688,2768.995117,719.23999,40.43,2764.085938,55.347267,4.821876,0,0,0,0,0,0,0,0,0
2,11359726,0.007,4.651173,0.276172,-0.248828,2765.367188,719.570007,40.41,2765.141113,56.10788,4.666321,0,0,0,0,0,0,0,0,0
2,11359740,0.007,4.632032,0.084766,0.133984,2774.604736,718.72998,40.41,2770.307617,67.076317,4.643173,0,0,0,0,0,0,0,0,0
2,11359754,0.007,4.57461,0.027344,0.363672,2773.283691,718.849976,40.41,2772.137695,69.362206,4.580715,0,0,0,0,0,0,0,0,0
2,11359768,0.007,4.957423,-0.0875,-0.229688,2774.604736,718.72998,40.41,2774.004883,71.65757,4.891997,0,0,0,0,0,0,0,0,0
2,11359782,0.007,4.86172,0.046485,-0.401953,2777.244385,718.48999,40.41,2776.585693,75.634811,4.884444,0,0,0,0,0,0,0,0,0
2,11359796,0.007,4.804298,0.123047,-0.057422,2785.168701,717.77002,40.41,2779.720215,80.932739,4.799481,0,0,0,0,0,0,0,0,0
2,11359807,0.011,4.785157,0.142188,-0.095703,2785.168701,717.77002,40.41,2782.025146,84.540131,4.789474,0,0,0,0,0,0,0,0,0
2,11359820,0.007,4.708595,0.142188,0.440234,2790.786377,717.26001,40.400002,2785.788574,91.278763,4.731865,0,0,0,0,0,0,0,0,0
2,11359834,0.007,4.689454,0.142188,0.478516,2794.424805,716.929993,40.41,2789.363525,97.116356,4.693297,0,0,0,0,0,0,0,0,0
2,11359848,0.007,4.612892,0.103906,0.210547,2791.777344,717.169983,40.41,2791.78833,99.810501,4.628041,0,0,0,0,0,0,0,0,0
2,11359862,0.007,4.612892,0.103906,0.30625,2794.752441,716.900024,40.400002,2794.38208,102.835655,4.614252,0,0,0,0,0,0,0,0,0
2,11359876,0.007,4.57461,0.142188,0.89961,2798.723877,716.539978,40.400002,2797.151123,106.212692,4.578158,0,0,0,0,0,0,0,0,0
2,11359890,0.007,4.632032,0.084766,0.861328,2802.692627,716.179993,40.400002,2800.581299,111.117401,4.615288,0,0,0,0,0,0,0,0,0
2,11359904,0.007,4.746876,0.276172,0.210547,2804.016357,716.059998,40.400002,2803.876465,115.482536,4.727216,0,0,0,0,0,0,0,0,0
2,11359918,0.007,4.823439,0.123047,0.325391,2806.666748,715.820007,40.400002,2806.577637,118.229362,4.798903,0,0,0,0,0,0,0,0,0
2,11359932,0.007,4.842579,0.084766,0.191406,2811.853516,715.349976,40.400002,2809.195801,120.727219,4.838745,0,0,0,0,0,0,0,0,0
2,11359946,0.007,4.478907,0.046485,0.153125,2813.179932,715.22998,40.400002,2812.281494,124.251945,4.538874,0,0,0,0,0,0,0,0,0
2,11359960,0.007,4.612892,0.21875,0.325391,2810.529785,715.469971,40.400002,2813.810059,123.731514,4.606287,0,0,0,0,0,0,0,0,0
2,11359974,0.007,4.612892,0.429297,0.401953,2818.483154,714.75,40.400002,2817.861572,129.535538,4.620342,0,0,0,0,0,0,0,0,0
2,11359988,0.007,4.746876,0.448438,0.038281,2822.459961,714.390015,40.400002,2821.054688,133.035858,4.707661,0,0,0,0,0,0,0,0,0
2,11360002,0.007,4.612892,0.467578,-0.133984,2825.445557,714.119995,40.380001,2823.588867,134.794907,4.641341,0,0,0,0,0,0,0,0,0
2,11360016,0.007,4.727736,0.601563,0.076563,2826.772217,714,40.380001,2826.077393,136.35881,4.696068,0,0,0,0,0,0,0,0,0
2,11360030,0.007,4.727736,0.639844,0.287109,2829.427734,713.76001,40.380001,2829.53418,140.244583,4.724941,0,0,0,0,0,0,0,0,0
2,11360044,0.007,4.785157,0.563281,0.210547,2833.409668,713.400024,40.380001,2832.432373,142.639038,4.763824,0,0,0,0,0,0,0,0,0
2,11360058,0.007,4.670313,0.639844,0.133984,2836.067871,713.159973,40.380001,2835.512451,145.388351,4.678626,0,0,0,0,0,0,0,0,100
2,11360072,0.007,4.708595,0.639844,0.267969,2873.329834,709.799988,40.380001,2849.130127,174.530731,4.68231,0,0,0,0,0,0,0,0,100
2,11360086,0.007,4.88086,0.391016,0.114844,3006.130127,697.929993,40.380001,2917.942383,340.239471,4.828895,0,0,0,0,0,0,0,0,100
2,11360100,0.007,5.47422,0.601563,0.057422,3278.703857,674.070007,40.380001,3088.370117,753.195679,5.360775,0,0,0,0,0,0,0,0,100
2,11360114,0.007,6.029298,0.276172,0.191406,3341.358643,668.679993,40.380001,3225.969971,1069.333618,5.856514,0,0,0,0,0,0,0,0,100
2,11360128,0.007,6.641798,0.563281,-0.191406,3390.463379,664.47998,40.380001,3314.80835,1253.347412,6.573747,0,0,0,0,0,0,0,0,100
2,11360142,0.007,7.541408,0.773828,-0.59336,3438.405762,660.400024,40.380001,3374.325439,1358.364258,7.340632,0,0,0,0,0,0,0,0,100
2,11360153,0.011,7.962502,0.754688,0.267969,3417.224854,662.200012,40.380001,3397.943848,1380.258301,7.777587,0,0,0,0,0,0,0,0,100
2,11360166,0.007,8.153908,0.678125,0.363672,3399.25708,663.72998,40.360001,3411.049805,1368.187988,8.120341,0,0,0,0,0,0,0,0,100
2,11360180,0.007,8.957814,0.410157,0.784766,3435.816162,660.619995,40.360001,3431.896973,1372.571899,8.811529,0,0,0,0,0,0,0,0,100
2,11360194,0.007,8.82383,0.352735,0.363672,3427.104492,661.359985,40.380001,3445.195801,1357.725952,8.850495,0,0,0,0,0,0,0,0,100
2,11360208,0.007,8.670705,0.773828,-0.133984,3432.753906,660.880005,40.380001,3445.438232,1311.248291,8.690321,0,0,0,0,0,0,0,0,100
2,11360222,0.007,8.594143,0.314453,0.440234,3433.10791,660.849976,40.360001,3445.284668,1265.409668,8.618359,0,0,0,0,0,0,0,0,100
2,11360236,0.007,8.441017,0.161328,0.057422,3445.71167,659.780029,40.360001,3459.809082,1257.366089,8.456558,0,0,0,0,0,0,0,0,100
2,11360250,0.007,8.326174,0.429297,-0.440234,3404.890625,663.25,40.360001,3441.029785,1166.916626,8.352971,0,0,0,0,0,0,0,0,100
2,11360264,0.007,8.268752,0.429297,-0.382813,3437.227295,660.5,40.360001,3446.38208,1139.721191,8.276007,0,0,0,0,0,0,0,0,100
2,11360278,0.007,8.441017,0.295313,0.076563,3423.455566,661.669983,40.34,3445.951172,1098.92627,8.425957,0,0,0,0,0,0,0,0,100
2,11360292,0.007,8.153908,0.257031,-0.038281,3427.456055,661.330017,40.360001,3446.400635,1061.781372,8.237719,0,0,0,0,0,0,0,0,100
2,11360306,0.007,8.383595,-0.030078,0.459375,3424.634033,661.570007,40.360001,3443.231689,1016.992249,8.310215,0,0,0,0,0,0,0,0,100
2,11360320,0.007,8.53672,0.257031,-0.057422,3434.75415,660.710022,40.34,3444.563477,985.043152,8.48436,0,0,0,0,0,0,0,0,100
2,11360334,0.007,8.402736,0.276172,-0.535938,3457.390869,658.789978,40.34,3454.109619,974.739319,8.409969,0,0,0,0,0,0,0,0,100
2,11360348,0.007,8.364455,-0.202344,-0.210547,3427.691162,661.309998,40.34,3448.391602,926.622253,8.356051,0,0,0,0,0,0,0,0,100
2,11360362,0.007,8.402736,-0.030078,-0.363672,3450.312012,659.390015,40.34,3450.784424,900.598328,8.398479,0,0,0,0,0,0,0,0,100
2,11360376,0.007,7.924221,-0.221484,0.076563,3447.482178,659.630005,40.34,3457.67334,886.37915,7.998143,0,0,0,0,0,0,0,0,100
2,11360390,0.007,8.268752,0.084766,-0.133984,3458.807129,658.669983,40.34,3459.93335,861.403503,8.172576,0,0,0,0,0,0,0,0,100
2,11360404,0.007,8.077346,0.429297,0.30625,3430.515869,661.070007,40.34,3451.094727,809.497864,8.113368,0,0,0,0,0,0,0,0,100
2,11360418,0.007,8.287892,-0.010937,-0.019141,3422.398438,661.76001,40.330002,3450.528809,779.673645,8.22794,0,0,0,0,0,0,0,0,100
2,11360432,0.007,8.134768,0.008203,-0.478516,3446.419922,659.719971,40.330002,3454.08252,761.452698,8.142871,0,0,0,0,0,0,0,0,100
2,11360446,0.007,8.51758,0.276172,-0.172266,3442.17627,660.080017,40.330002,3454.294434,735.527771,8.412043,0,0,0,0,0,0,0,0,100
2,11360460,0.007,8.460158,0.046485,-0.191406,3446.419922,659.719971,40.330002,3466.929443,741.016541,8.455684,0,0,0,0,0,0,0,0,100
2,11360474,0.007,8.421877,-0.164062,0.478516,3477.59668,657.080017,40.330002,3473.031738,730.670776,8.42088,0,0,0,0,0,0,0,0,100
2,11360485,0.011,8.230471,-0.030078,0.574219,3470.855957,657.650024,40.310001,3477.899902,722.794861,8.287071,0,0,0,0,0,0,0,0,100
2,11360498,0.007,8.096486,0.237891,0.172266,3452.433838,659.210022,40.310001,3475.235352,692.664246,8.141033,0,0,0,0,0,0,0,0,100
2,11360512,0.007,8.192189,-0.125781,0.210547,3446.773926,659.690002,40.310001,3472.317871,661.121094,8.163217,0,0,0,0,0,0,0,0,100
2,11360526,0.007,8.441017,-0.030078,0.6125,3462.350342,658.369995,40.310001,3474.900635,644.510559,8.364125,0,0,0,0,0,0,0,0,100
2,11360540,0.007,8.402736,0.21875,0.440234,3431.575439,660.97998,40.290001,3466.433594,600.748474,8.398739,0,0,0,0,0,0,0,0,100
2,11360554,0.007,8.249611,0.008203,-0.172266,3471.09375,657.630005,40.290001,3469.176758,586.900269,8.254797,0,0,0,0,0,0,0,0,100
2,11360568,0.007,7.943361,-0.010937,-0.421094,3431.223877,661.01001,40.310001,3464.700928,555.004517,7.970482,0,0,0,0,0,0,0,0,100
2,11360582,0.007,7.981642,-0.10664,1.320703,3459.869385,658.580017,40.290001,3470.961426,551.165527,7.908459,0,0,0,0,0,0,0,0,100
2,11360596,0.007,8.039064,0.295313,0.823047,3464.004395,658.22998,40.290001,3478.261719,549.970642,8.015305,0,0,0,0,0,0,0,0,100
2,11360610,0.007,7.809377,0.21875,0.6125,3454.204102,659.059998,40.290001,3482.375,540.668335,7.847306,0,0,0,0,0,0,0,0,100
2,11360624,0.007,7.962502,0.19961,0.59336,3449.958008,659.419983,40.290001,3472.710938,497.76947,7.919826,0,0,0,0,0,0,0,0,100
2,11360638,0.007,8.153908,0.21875,0.746485,3467.191162,657.960022,40.27,3474.152832,484.096954,8.133007,0,0,0,0,0,0,0,0,100
2,11360652,0.007,7.61797,0.276172,-0.038281,3458.452881,658.700012,40.290001,3469.540771,455.854004,7.735471,0,0,0,0,0,0,0,0,100
2,11360666,0.007,7.694533,0.027344,-0.057422,3477.123535,657.119995,40.27,3475.398438,454.697571,7.698178,0,0,0,0,0,0,0,0,100
2,11360680,0.007,7.847658,0.257031,0.478516,3479.961426,656.880005,40.27,3480.27002,451.110077,7.842384,0,0,0,0,0,0,0,0,100
2,11360694,0.007,8.058205,0.410157,0.019141,3474.285889,657.359985,40.27,3484.489258,445.844452,7.994891,0,0,0,0,0,0,0,0,100
2,11360708,0.007,7.637111,0.582422,-0.095703,3478.54248,657,40.27,3491.16626,446.77774,7.748772,0,0,0,0,0,0,0,0,100
2,11360722,0.007,7.61797,0.563281,-0.133984,3470.383057,657.690002,40.259998,3483.128174,411.332062,7.633286,0,0,0,0,0,0,0,0,100
2,11360736,0.007,7.828517,0.237891,0,3476.058838,657.210022,40.259998,3479.651367,388.560913,7.811062,0,0,0,0,0,0,0,0,100
2,11360750,0.007,7.732814,0.678125,0.401953,3485.999268,656.369995,40.259998,3486.472656,392.069336,7.74777,0,0,0,0,0,0,0,0,100
2,11360764,0.007,7.771095,0.295313,0.267969,3485.999268,656.369995,40.259998,3494.987305,399.473419,7.768956,0,0,0,0,0,0,0,0,100
2,11360778,0.007,7.790236,1.080079,-0.133984,3494.525879,655.650024,40.259998,3499.30835,396.346436,7.792284,0,0,0,0,0,0,0,0,100
2,11360792,0.007,7.732814,0.850391,0.114844,3499.147461,655.26001,40.240002,3498.654785,381.143463,7.750041,0,0,0,0,0,0,0,0,100
2,11360806,0.007,7.503127,0.237891,-0.267969,3490.615234,655.97998,40.240002,3501.200439,374.148621,7.572918,0,0,0,0,0,0,0,0,100
2,11360820,0.007,7.254298,0.391016,-0.631641,3500.568848,655.140015,40.240002,3507.295654,376.232788,7.334535,0,0,0,0,0,0,0,0,100
2,11360831,0.011,7.330861,0.161328,-0.191406,3477.831787,657.059998,40.240002,3501.006836,350.105499,7.331588,0,0,0,0,0,0,0,0,100
2,11360844,0.007,7.522267,0.448438,0.133984,3503.417236,654.900024,40.240002,3502.483154,342.627045,7.505331,0,0,0,0,0,0,0,0,100
2,11360858,0.007,7.59883,0.467578,0,3486.353271,656.340027,40.240002,3498.298584,320.317413,7.614326,0,0,0,0,0,0,0,0,100
2,11360872,0.007,7.656251,0.142188,-0.114844,3493.458496,655.73999,40.240002,3508.564697,334.407715,7.652422,0,0,0,0,0,0,0,0,100
2,11360886,0.007,7.656251,0.180469,0.153125,3481.026367,656.789978,40.220001,3498.880859,298.684875,7.671575,0,0,0,0,0,0,0,0,100
2,11360900,0.007,7.579689,0.180469,-0.153125,3510.773682,654.280029,40.220001,3504.490723,302.438934,7.603938,0,0,0,0,0,0,0,0,100
2,11360914,0.007,7.809377,0.50586,-0.631641,3509.34668,654.400024,40.220001,3505.797119,295.384338,7.767144,0,0,0,0,0,0,0,0,100
2,11360928,0.007,7.560548,0.21875,-0.497656,3490.853027,655.960022,40.220001,3508.992432,292.812958,7.630701,0,0,0,0,0,0,0,0,100
2,11360942,0.007,7.350001,0.008203,-0.363672,3482.447998,656.669983,40.220001,3502.593506,266.589142,7.374568,0,0,0,0,0,0,0,0,100
2,11360956,0.007,7.464845,0.620703,-0.095703,3499.739258,655.210022,40.200001,3500.777588,252.968338,7.444759,0,0,0,0,0,0,0,0,100
2,11360970,0.007,7.369142,0.314453,-0.30625,3536.800537,652.090027,40.200001,3520.304932,292.872803,7.3762,0,0,0,0,0,0,0,0,100
2,11360984,0.007,7.713674,0.180469,0.076563,3512.554443,654.130005,40.200001,3513.635498,266.360107,7.647586,0,0,0,0,0,0,0,0,100
2,11360998,0.007,7.426564,0.237891,-0.229688,3492.628662,655.809998,40.200001,3510.287842,248.639801,7.505944,0,0,0,0,0,0,0,0,100
2,11361012,0.007,7.426564,0.486719,-0.229688,3510.060059,654.340027,40.189999,3508.393311,235.495819,7.397543,0,0,0,0,0,0,0,0,100
2,11361026,0.007,7.330861,0.19961,-0.191406,3529.663574,652.690002,40.200001,3519.056396,253.996689,7.356987,0,0,0,0,0,0,0,0,100
2,11361040,0.007,7.235158,0.19961,0.076563,3527.166504,652.900024,40.189999,3522.300049,253.418213,7.246017,0,0,0,0,0,0,0,0,100
2,11361054,0.007,7.464845,0.180469,0.114844,3490.142334,656.02002,40.189999,3513.578125,222.760345,7.433034,0,0,0,0,0,0,0,0,100
2,11361068,0.007,7.388283,0.352735,0.038281,3530.258057,652.640015,40.169998,3523.525391,239.858597,7.392399,0,0,0,0,0,0,0,0,100
2,11361082,0.007,7.350001,-0.10664,0.019141,3524.312744,653.140015,40.189999,3530.219482,248.083817,7.369742,0,0,0,0,0,0,0,0,100
2,11361096,0.007,7.196877,0.084766,-0.153125,3501.874268,655.030029,40.169998,3517.577637,208.074646,7.243893,0,0,0,0,0,0,0,0,100
2,11361110,0.007,7.388283,-0.010937,0.095703,3507.568359,654.549988,40.169998,3515.534912,195.781006,7.359321,0,0,0,0,0,0,0,0,100
2,11361124,0.007,7.637111,0.008203,0.287109,3516.116455,653.830017,40.169998,3524.558838,211.238693,7.5604,0,0,0,0,0,0,0,0,100
2,11361138,0.007,7.732814,0.142188,-0.325391,3521.699463,653.359985,40.169998,3534.416016,228.138138,7.717448,0,0,0,0,0,0,0,0,100
2,11361152,0.007,7.445705,0.658985,0.59336,3550.260498,650.960022,40.169998,3531.623779,213.816788,7.445941,0,0,0,0,0,0,0,0,100
2,11361163,0.011,7.483986,0.467578,0.421094,3517.540527,653.710022,40.169998,3528.875977,201.080521,7.472475,0,0,0,0,0,0,0,0,100
2,11361176,0.007,7.31172,0.486719,-0.153125,3524.550537,653.119995,40.169998,3527.89917,192.237671,7.325906,0,0,0,0,0,0,0,0,100
2,11361190,0.007,7.139455,0.276172,-0.153125,3513.503174,654.049988,40.150002,3519.094727,163.833069,7.167823,0,0,0,0,0,0,0,0,100
2,11361204,0.007,7.273439,0.391016,0.459375,3534.897949,652.25,40.150002,3524.11377,170.874603,7.236198,0,0,0,0,0,0,0,0,100
2,11361218,0.007,7.196877,0.19961,-0.172266,3514.927246,653.929993,40.150002,3524.690674,166.299042,7.204239,0,0,0,0,0,0,0,0,100
2,11361232,0.007,7.235158,0.716407,-0.114844,3544.89917,651.409973,40.150002,3533.294189,182.12355,7.224604,0,0,0,0,0,0,0,0,100
2,11361246,0.007,7.254298,0.448438,0.153125,3525.26416,653.059998,40.130001,3528.982178,165.203323,7.251552,0,0,0,0,0,0,0,0,100
2,11361260,0.007,6.794923,0.180469,0.133984,3540.967285,651.73999,40.130001,3535.411133,175.569016,6.875566,0,0,0,0,0,0,0,0,100
